time,ax,ay,az,ax_g,ay_g,az_g,rot_x,rot_y,rot_,heart
11:2:6:47,,,,0.38763725757598877,-2.1678972244262695,9.726823806762695,-47.880001068115234,41.02000045776367,20.649999618530273,123
11:2:6:50,0.2480878382921219,-1.3874542713165283,6.225167274475098,0.38763725757598877,-2.1678972244262695,9.726823806762695,-2.6600000858306885,5.25,2.6600000858306885,123
11:2:6:71,0.12764273583889008,-0.809424877166748,4.926535129547119,0.2991028428077698,-1.7922240495681763,9.659825325012207,-3.8499999046325684,6.720000267028809,3.3600001335144043,123
11:2:6:111,0.0848858654499054,-0.5384273529052734,3.7057743072509766,0.27756744623184204,-1.65583336353302,9.365508079528809,-3.569999933242798,4.550000190734863,0.2800000011920929,123
11:2:6:151,0.27656280994415283,-0.3158862590789795,2.9244203567504883,0.5383850932121277,-1.5122638940811157,9.315258979797363,-5.599999904632568,-2.380000114440918,-1.0499999523162842,123
11:2:6:196,0.13893717527389526,-0.4345635175704956,2.517561912536621,0.43549373745918274,-1.7395820617675781,9.53779125213623,-4.199999809265137,2.0299999713897705,0.2800000011920929,123
11:2:6:238,0.040322184562683105,-0.36870765686035156,2.1059341430664062,0.34695929288864136,-1.765903115272522,9.652647018432617,-4.269999980926514,-0.21000000834465027,2.6600000858306885,123
11:2:6:293,-0.009855926036834717,-0.18011069297790527,1.5507493019104004,0.29431718587875366,-1.6223337650299072,9.485149383544922,-6.230000019073486,2.240000009536743,3.1500000953674316,123
11:2:6:316,0.09739944338798523,-0.09814631938934326,1.3229122161865234,0.4259224236011505,-1.5649060010910034,9.588040351867676,-2.7300000190734863,-0.14000000059604645,0.9800000190734863,123
11:2:6:360,0.165975421667099,-0.11105942726135254,1.090871810913086,0.5359922647476196,-1.6055840253829956,9.628718376159668,-7,0.14000000059604645,-5.53000020980835,123
11:2:6:396,0.1174662709236145,-0.06396210193634033,0.8918399810791016,0.5168496966362,-1.574477195739746,9.652647018432617,-11.130000114440918,0.2800000011920929,-4.690000057220459,123
11:2:6:441,-0.17593736946582794,-0.20622467994689941,0.5986156463623047,0.17946170270442963,-1.7682960033416748,9.509077072143555,-20.719999313354492,-5.949999809265137,-13.300000190734863,123
11:2:6:487,-0.03546568751335144,-0.09606635570526123,0.36786556243896484,0.31106695532798767,-1.6821542978286743,9.370293617248535,-29.260000228881836,10.569999694824219,-15.399999618530273,123
11:2:6:521,0.16113895177841187,-0.5707317590713501,0.43211936950683594,0.5479563474655151,-2.2995026111602783,9.542576789855957,-25.479999542236328,6.789999961853027,-18.549999237060547,123
11:2:6:561,0.3299082815647125,-0.9160072803497314,0.4414081573486328,0.7992027401924133,-2.8737800121307373,9.66221809387207,-13.579999923706055,6.929999828338623,-2.1700000762939453,123
11:2:6:598,0.16821366548538208,-0.24467015266418457,0.32441234588623047,0.6795615553855896,-2.263610363006592,9.626325607299805,-3.7799999713897705,-0.07000000029802322,1.3300000429153442,123
11:2:6:641,-0.17745310068130493,-0.19573616981506348,0.07767581939697266,0.28953152894973755,-2.263610363006592,9.399007797241211,-9.170000076293945,9.380000114440918,-7.349999904632568,123
11:2:6:681,-0.023278474807739258,-0.19678831100463867,-0.10248565673828125,0.4378865361213684,-2.313859462738037,9.193224906921387,-5.460000038146973,-4.199999809265137,-1.5399999618530273,123
11:2:6:736,-0.030108332633972168,-0.18040180206298828,0.08838081359863281,0.42352959513664246,-2.342573404312134,9.4061861038208,-1.6800000667572021,-8.470000267028809,-3.990000009536743,123
11:2:6:760,-0.026000916957855225,-0.33191871643066406,0.29467201232910156,0.4211367666721344,-2.5770699977874756,9.686145782470703,-10.640000343322754,4.900000095367432,-10.569999694824219,123
11:2:6:802,0.23762410879135132,0.07137441635131836,0.4405641555786133,0.7441678047180176,-2.155933380126953,9.942178726196289,-10.920000076293945,13.510000228881836,-4.96999979019165,123
11:2:6:840,-0.18318098783493042,-0.18218278884887695,-0.21608352661132812,0.27756744623184204,-2.455036163330078,9.231510162353516,-5.599999904632568,-5.039999961853027,-1.6800000667572021,123
11:2:6:882,-0.1446305513381958,-0.2280592918395996,0.047272682189941406,0.2799602448940277,-2.557927370071411,9.506684303283691,0.3499999940395355,2.0299999713897705,13.15999984741211,123
11:2:6:921,-0.014248758554458618,0.07406306266784668,-0.09617996215820312,0.40677985548973083,-2.2372891902923584,9.339186668395996,-17.780000686645508,-1.0499999523162842,5.110000133514404,123
11:2:6:963,-0.20282483100891113,0.4114738702774048,-0.22051429748535156,0.16749757528305054,-1.797009825706482,9.159724235534668,-15.190000534057617,3.990000009536743,2.5899999141693115,123
11:2:7:1,-0.168002650141716,-0.1493854522705078,-0.25298118591308594,0.16031910479068756,-2.3952155113220215,9.06401252746582,-7.28000020980835,-0.2800000011920929,4.550000190734863,123
11:2:7:43,-0.013803839683532715,-0.05825209617614746,0.057953834533691406,0.31106695532798767,-2.3186452388763428,9.389435768127441,-6.300000190734863,-7,4.96999979019165,123
11:2:7:81,0.3316091299057007,-0.17485666275024414,0.12101936340332031,0.7393822073936462,-2.47896409034729,9.482755661010742,-22.049999237060547,6.300000190734863,-2.5899999141693115,123
11:2:7:122,-0.15010672807693481,-0.8539035320281982,-0.11183738708496094,0.22013968229293823,-3.3714869022369385,9.221939086914062,-13.720000267028809,6.650000095367432,7.769999980926514,123
11:2:7:161,0.071340411901474,-0.030360937118530273,-0.0033283233642578125,0.45942193269729614,-2.555534601211548,9.329615592956543,-1.6800000667572021,-2.0999999046325684,10.710000038146973,123
11:2:7:203,0.14704248309135437,-0.1353154182434082,0.047107696533203125,0.5718846321105957,-2.6943180561065674,9.391828536987305,-9.65999984741211,5.25,4.690000057220459,123
11:2:7:241,-0.1446193903684616,-0.33222055435180664,0.0931997299194336,0.24406792223453522,-2.974278450012207,9.461220741271973,5.949999809265137,-1.4700000286102295,10.289999961853027,123
11:2:7:283,-0.016154110431671143,0.06539011001586914,0.02096080780029297,0.3684946894645691,-2.5603203773498535,9.394222259521484,-0.07000000029802322,1.4700000286102295,10.779999732971191,123
11:2:7:322,-0.15840689837932587,-0.001287221908569336,-0.08660221099853516,0.1866401582956314,-2.627319574356079,9.265008926391602,-3.1500000953674316,2.0299999713897705,10.359999656677246,123
11:2:7:362,-0.019527077674865723,0.08511209487915039,-0.08650970458984375,0.3206382095813751,-2.5196423530578613,9.243474006652832,0.699999988079071,-4.130000114440918,6.579999923706055,123
11:2:7:401,-0.044335514307022095,-0.008480548858642578,-0.04623603820800781,0.2847459018230438,-2.6153552532196045,9.272188186645508,0.49000000953674316,-0.07000000029802322,8.260000228881836,123
11:2:7:443,0.060244470834732056,0.08510017395019531,-0.03316020965576172,0.4043869972229004,-2.5004994869232178,9.276973724365234,2.6600000858306885,-7.420000076293945,11.0600004196167,123
11:2:7:481,-0.022631943225860596,0.05085182189941406,0.017499923706054688,0.3158525824546814,-2.5220348834991455,9.332008361816406,0.2800000011920929,-3.3600001335144043,10.430000305175781,123
11:2:7:523,-0.00661998987197876,-0.1201162338256836,-0.11999797821044922,0.33020952343940735,-2.723031997680664,9.164510726928711,0.6299999952316284,-2.380000114440918,11.199999809265137,123
11:2:7:561,-0.041666895151138306,0.09341835975646973,0.20454025268554688,0.2847459018230438,-2.486142873764038,9.540184020996094,7,-14.770000457763672,19.389999389648438,123
11:2:7:603,0.2040344774723053,0.36953067779541016,0.19234657287597656,0.5814558863639832,-2.117647886276245,9.57607650756836,4.900000095367432,-9.239999771118164,14.630000114440918,123
11:2:7:641,0.15174201130867004,-0.05468487739562988,-0.1945171356201172,0.5670989155769348,-2.555534601211548,9.140583038330078,-5.320000171661377,-8.609999656677246,15.119999885559082,123
11:2:7:681,0.08119422197341919,0.18787717819213867,-0.05990123748779297,0.5168496966362,-2.266003131866455,9.260223388671875,-0.3499999940395355,-16.8700008392334,15.050000190734863,123
11:2:7:723,0.2946663498878479,0.2383575439453125,0.10139179229736328,0.8039883971214294,-2.155933380126953,9.446864128112793,-2.940000057220459,-8.819999694824219,8.260000228881836,123
11:2:7:762,-0.11074763536453247,-0.3759341239929199,0.016028404235839844,0.37088751792907715,-2.864208698272705,9.365508079528809,-4.130000114440918,0.3499999940395355,22.610000610351562,123
11:2:7:803,0.3650810718536377,0.3539290428161621,0.2616758346557617,0.9379864931106567,-2.045863389968872,9.67657470703125,10.989999771118164,-17.989999771118164,25.059999465942383,123
11:2:7:841,0.07383942604064941,0.3233426809310913,-0.11034011840820312,0.6652047038078308,-1.9956141710281372,9.276973724365234,1.5399999618530273,-8.119999885559082,23.170000076293945,123
11:2:7:883,0.346210241317749,-0.053349971771240234,-0.05955791473388672,1.0241280794143677,-2.3856441974639893,9.3128662109375,2.7300000190734863,-22.540000915527344,16.65999984741211,123
11:2:7:922,0.3286532163619995,0.06643271446228027,0.0308380126953125,1.0887343883514404,-2.249253273010254,9.410971641540527,-8.75,1.0499999523162842,8.890000343322754,123
11:2:7:963,0.2801508903503418,0.04931759834289551,0.07444095611572266,1.1102697849273682,-2.2540390491485596,9.473184585571289,0.699999988079071,-1.6800000667572021,2.0299999713897705,123
11:2:8:2,0.2604915499687195,0.1715378761291504,0.12655162811279297,1.155733346939087,-2.0889341831207275,9.556933403015137,4.059999942779541,-6.440000057220459,2.7300000190734863,123
11:2:8:43,-0.14191597700119019,-0.017824649810791016,-0.16292572021484375,0.7178468108177185,-2.282752752304077,9.226724624633789,-0.9100000262260437,4.96999979019165,1.3300000429153442,123
11:2:8:82,0.007065415382385254,0.11590981483459473,-0.09971332550048828,0.8685945868492126,-2.1200408935546875,9.265008926391602,-7.909999847412109,-3.009999990463257,6.789999961853027,123
11:2:8:123,0.19133532047271729,0.24778282642364502,-0.11997032165527344,1.1006983518600464,-1.9262222051620483,9.214759826660156,-12.039999961853027,-2.5899999141693115,-0.49000000953674316,123
11:2:8:162,0.14158278703689575,-0.20376801490783691,-0.193603515625,1.0863415002822876,-2.4287149906158447,9.09272575378418,-14.420000076293945,-1.190000057220459,-2.940000057220459,123
11:2:8:203,0.37934815883636475,-0.1362147331237793,0.18776988983154297,1.4189438819885254,-2.3952155113220215,9.521041870117188,-0.699999988079071,-5.110000133514404,-2.799999952316284,123
11:2:8:242,0.15799486637115479,-0.14342832565307617,0.15978717803955078,1.2370892763137817,-2.438286304473877,9.533005714416504,-7.070000171661377,0.7699999809265137,0.42000001668930054,123
11:2:8:283,-0.015259146690368652,0.12071108818054199,-0.004254341125488281,1.0600204467773438,-2.1439690589904785,9.367900848388672,4.059999942779541,0.7699999809265137,0.699999988079071,123
11:2:8:322,0.04522049427032471,0.274594783782959,0.03296661376953125,1.131805181503296,-1.9214365482330322,9.413363456726074,0.49000000953674316,-1.9600000381469727,-2.5199999809265137,123
11:2:8:363,0.2142024040222168,0.06270670890808105,-0.009996414184570312,1.3543376922607422,-2.117647886276245,9.367900848388672,-3.7100000381469727,1.0499999523162842,-10.289999961853027,123
11:2:8:402,-0.021978259086608887,-0.3192868232727051,0.10302925109863281,1.112662434577942,-2.579463005065918,9.506684303283691,12.529999732971191,-6.230000019073486,0.5600000023841858,123
11:2:8:443,0.1547006368637085,0.2767345905303955,0.2527923583984375,1.3280165195465088,-1.9142580032348633,9.719645500183105,13.930000305175781,-9.239999771118164,6.159999847412109,123
11:2:8:484,0.17353129386901855,0.24627292156219482,0.1275777816772461,1.3902300596237183,-1.8831514120101929,9.626325607299805,2.380000114440918,3.990000009536743,6.159999847412109,123
11:2:8:522,-0.048772335052490234,0.017077922821044922,-0.03384971618652344,1.155733346939087,-2.108076810836792,9.456435203552246,10.569999694824219,-4.900000095367432,5.880000114440918,123
11:2:8:564,0.16963624954223633,0.4003424644470215,0.0686330795288086,1.4165509939193726,-1.6247265338897705,9.57607650756836,10.430000305175781,-9.170000076293945,4.340000152587891,123
11:2:8:602,0.08019542694091797,0.012078523635864258,-0.20351886749267578,1.3471590280532837,-2.0099709033966064,9.253045082092285,3.9200000762939453,3.990000009536743,-0.2800000011920929,123
11:2:8:645,0.19241178035736084,0.20683133602142334,0.02095317840576172,1.5074783563613892,-1.7635102272033691,9.482755661010742,15.260000228881836,-6.579999923706055,4.059999942779541,123
11:2:8:696,0.29175591468811035,0.5655449628829956,0.02824878692626953,1.6797614097595215,-1.2634103298187256,9.497113227844238,3.430000066757202,-0.21000000834465027,3.640000104904175,123
11:2:8:723,-0.002048969268798828,0.3777797222137451,-0.11905574798583984,1.3854442834854126,-1.356730580329895,9.32004451751709,4.900000095367432,-3.7799999713897705,2.870000123977661,123
11:2:8:763,0.025160551071166992,0.2256535291671753,-0.09907341003417969,1.4189438819885254,-1.4524433612823486,9.315258979797363,3.7100000381469727,-2.450000047683716,4.480000019073486,123
11:2:8:803,0.18666887283325195,0.47723281383514404,0.17725181579589844,1.6271194219589233,-1.0815558433532715,9.635896682739258,6.789999961853027,-7.559999942779541,1.6800000667572021,123
11:2:8:842,-0.12440383434295654,0.06210517883300781,0.013545989990234375,1.2849457263946533,-1.4811571836471558,9.475577354431152,-10.430000305175781,3.2899999618530273,8.050000190734863,123
11:2:8:884,0.04404640197753906,0.2640810012817383,0.06826496124267578,1.4644075632095337,-1.2131611108779907,9.547362327575684,-3.1500000953674316,5.320000171661377,0.699999988079071,123
11:2:8:923,0.05437958240509033,0.46777546405792236,-0.05067253112792969,1.4883356094360352,-0.8925228118896484,9.415757179260254,5.389999866485596,-6.929999828338623,-0.2800000011920929,123
11:2:8:963,0.1679304838180542,0.6269023418426514,-0.20899295806884766,1.643869161605835,-0.5766702890396118,9.205188751220703,-4.619999885559082,1.4700000286102295,-10.989999771118164,123
11:2:9:4,0.07500231266021729,0.10909903049468994,-0.2246227264404297,1.56969153881073,-1.0671988725662231,9.133403778076172,-30.940000534057617,5.599999904632568,-12.880000114440918,123
11:2:9:43,0.20931410789489746,-0.8105080127716064,0.28546714782714844,1.7563319206237793,-2.1894328594207764,9.714859962463379,-66.8499984741211,17.079999923706055,-4.480000019073486,123
11:2:9:83,0.26699256896972656,-1.2935113906860352,-0.14107799530029297,1.88075852394104,-2.995814085006714,9.253045082092285,-50.75,-28.559999465942383,-0.2800000011920929,123
11:2:9:125,0.08151018619537354,-0.07193708419799805,-0.16263294219970703,1.7156537771224976,-1.7922240495681763,9.190832138061523,0.8400000333786011,-28.06999969482422,-10.289999961853027,123
11:2:9:163,0.6949989795684814,-0.6337414979934692,0.05366230010986328,2.502892255783081,-2.5124638080596924,9.42054271697998,-27.719999313354492,12.529999732971191,-25.969999313354492,123
11:2:9:204,0.22483277320861816,-0.14519834518432617,0.2018136978149414,2.0889341831207275,-2.060220241546631,9.619147300720215,-28.979999542236328,9.520000457763672,-24.56999969482422,123
11:2:9:244,0.5110327005386353,0.10972368717193604,0.15570831298828125,2.502892255783081,-1.777867317199707,9.611968994140625,-29.81999969482422,15.470000267028809,-52.92000198364258,123
11:2:9:283,-0.6172159910202026,0.4610593318939209,-0.38271141052246094,1.2203395366668701,-1.3112668991088867,8.97787094116211,-53.619998931884766,35.209999084472656,-75.80999755859375,123
11:2:9:323,-0.8613103032112122,-1.1108739376068115,-0.8689613342285156,0.760917603969574,-3.160918712615967,8.274380683898926,-62.29999923706055,53.34000015258789,-44.52000045776367,123
11:2:9:365,-0.31576788425445557,-0.9078419208526611,-0.13237667083740234,1.227518081665039,-3.184847116470337,8.97787094116211,-4.900000095367432,-20.299999237060547,-25.40999984741211,123
11:2:9:403,0.2163788080215454,-0.2898223400115967,0.1199808120727539,1.813759446144104,-2.6392831802368164,9.260223388671875,-14.5600004196167,-7.349999904632568,-34.09000015258789,123
11:2:9:444,0.05441915988922119,-0.5974812507629395,0.04621410369873047,1.6654045581817627,-3.0963122844696045,9.198010444641113,-19.950000762939453,-5.039999961853027,-29.190000534057617,123
11:2:9:484,0.41107285022735596,-0.2865593433380127,0.2705106735229492,2.124826431274414,-2.857030153274536,9.489934921264648,-14.279999732971191,-9.449999809265137,-24.5,123
11:2:9:525,0.41117143630981445,-0.2464759349822998,0.16089439392089844,2.227717876434326,-2.878565788269043,9.42054271697998,-13.230000495910645,-3.009999990463257,-27.93000030517578,123
11:2:9:563,0.275337815284729,-0.2584366798400879,0.18805789947509766,2.1607186794281006,-2.9551358222961426,9.494720458984375,-13.369999885559082,1.8899999856948853,-31.5,123
11:2:9:605,0.1035006046295166,-0.3598904609680176,-0.1941204071044922,2.014756679534912,-3.146562099456787,9.06401252746582,-18.270000457763672,5.809999942779541,-35.06999969482422,123
11:2:9:644,0.013887166976928711,-0.35491108894348145,-0.24909496307373047,1.9286150932312012,-3.2303104400634766,8.94676399230957,-10.359999656677246,4.829999923706055,-42,123
11:2:9:686,-0.048232316970825195,0.2214350700378418,-0.2854175567626953,1.8544375896453857,-2.5986053943634033,8.839086532592773,-7.490000247955322,5.53000020980835,-43.68000030517578,123
11:2:9:724,-0.006043553352355957,-0.6689538955688477,-0.23981952667236328,1.8951154947280884,-3.6562328338623047,8.824729919433594,-12.739999771118164,12.319999694824219,-42.90999984741211,123
11:2:9:765,0.11576342582702637,-0.25185298919677734,0.13356876373291016,2.045863389968872,-3.3020951747894287,9.231510162353516,18.549999237060547,6.720000267028809,-46.47999954223633,123
11:2:9:804,0.2974362373352051,0.6618478298187256,0.0781412124633789,2.3018953800201416,-2.2229323387145996,9.19561767578125,11.899999618530273,1.0499999523162842,-35.90999984741211,123
11:2:9:845,0.49254536628723145,0.41462278366088867,-0.19974040985107422,2.620140790939331,-2.366501569747925,8.86780071258545,-1.5399999618530273,9.65999984741211,-36.540000915527344,123
11:2:9:884,0.484006404876709,0.5901229381561279,-0.25933361053466797,2.7326035499572754,-2.043470621109009,8.74337387084961,16.799999237060547,4.690000057220459,-36.400001525878906,123
11:2:9:925,0.43123316764831543,0.7190375328063965,-0.26680850982666016,2.7876384258270264,-1.7347965240478516,8.669197082519531,26.389999389648438,1.6100000143051147,-41.650001525878906,123
11:2:9:964,0.17270326614379883,0.4603745937347412,-0.07944965362548828,2.57228422164917,-1.8783657550811768,8.83669376373291,18.40999984741211,0.21000000834465027,-43.119998931884766,123
11:2:10:5,0.27790355682373047,0.33001458644866943,0.3518352508544922,2.746960401535034,-1.9262222051620483,9.355937004089355,23.940000534057617,-8.399999618530273,-36.119998931884766,123
11:2:10:44,0.4884049892425537,0.5817784070968628,0.2680683135986328,3.0795629024505615,-1.529013752937317,9.339186668395996,35.13999938964844,-4.130000114440918,-33.7400016784668,123
11:2:10:85,0.23566913604736328,0.8865596055984497,0.1493701934814453,2.885744333267212,-1.00259268283844,9.257830619812012,38.220001220703125,0.49000000953674316,-30.8700008392334,123
11:2:10:124,0.11962199211120605,0.925558865070343,0.023782730102539062,2.799602746963501,-0.7322037816047668,9.138189315795898,41.22999954223633,-6.159999847412109,-32.83000183105469,123
11:2:10:165,0.04018378257751465,1.1998690366744995,-0.46910953521728516,2.730210542678833,-0.1579262912273407,8.528019905090332,26.809999465942383,-16.030000686645508,-28.21000099182129,123
11:2:10:205,0.5968532562255859,1.3618894815444946,-0.03646373748779297,3.436093330383301,0.3445664942264557,8.951549530029297,19.670000076293945,-17.149999618530273,-30.450000762939453,123
11:2:10:245,0.4679112434387207,0.9516849517822266,0.23691082000732422,3.4241292476654053,0.17228324711322784,9.284152030944824,19.670000076293945,-10.430000305175781,-31.850000381469727,123
11:2:10:285,0.37241482734680176,0.6522352695465088,-0.10143852233886719,3.421736478805542,0.035892341285943985,8.920442581176758,27.719999313354492,-12.25,-29.540000915527344,123
11:2:10:326,0.3343026638031006,1.1573219299316406,-0.012237548828125,3.4672000408172607,0.8303093910217285,9.006584167480469,33.18000030517578,-17.149999618530273,-23.100000381469727,123
11:2:10:364,0.4818389415740967,1.3393372297286987,0.009352684020996094,3.735196113586426,1.3471590280532837,9.030512809753418,-1.1200000047683716,-18.34000015258789,-17.010000228881836,123
11:2:10:405,0.5520117282867432,0.564191460609436,-0.030803680419921875,3.9433717727661133,0.7130610942840576,8.98265552520752,-15.819999694824219,-16.450000762939453,-13.300000190734863,123
11:2:10:446,0.525836706161499,-0.43111976981163025,-0.3577232360839844,4.048655986785889,-0.3900300860404968,8.566305160522461,-8.680000305175781,-24.56999969482422,-7.490000247955322,123
11:2:10:487,0.989203929901123,0.41889315843582153,-0.5484323501586914,4.759324073791504,0.5647061467170715,8.23848819732666,-0.699999988079071,-30.380001068115234,-1.4700000286102295,123
11:2:10:524,0.5635666847229004,-0.11473613232374191,0.3078145980834961,4.474578380584717,0.0023928226437419653,9.1716890335083,-1.2599999904632568,-5.320000171661377,-13.369999885559082,123
11:2:10:566,-0.4239625930786133,0.8978824615478516,0.4319343566894531,3.38105845451355,1.239482045173645,9.403792381286621,-8.75,-31.920000076293945,2.7300000190734863,123
11:2:10:605,-0.21474313735961914,0.17082825303077698,-0.13493061065673828,3.5365920066833496,0.5551348924636841,8.803194999694824,19.110000610351562,-62.29999923706055,-18.479999542236328,123
11:2:10:645,1.126072883605957,0.39891594648361206,-0.43911170959472656,5.158926010131836,0.882951557636261,8.389235496520996,12.670000076293945,-76.86000061035156,-4.690000057220459,123
11:2:10:684,0.9429717063903809,0.46461641788482666,0.0066776275634765625,5.2115678787231445,1.0648061037063599,8.83669376373291,-22.190000534057617,-47.25,18.479999542236328,123
11:2:10:727,1.9144177436828613,-0.40549570322036743,-1.1278982162475586,6.661618232727051,0.0933200791478157,7.420143127441406,-10.779999732971191,-35.13999938964844,49.560001373291016,123
11:2:10:764,0.8634576797485352,0.4910773038864136,-0.6745219230651855,5.8265228271484375,1.112662434577942,7.704888820648193,4.409999847412109,-6.019999980926514,6.300000190734863,123
11:2:10:809,0.14711666107177734,0.2607780694961548,-0.1529369354248047,5.146961212158203,0.9475577473640442,8.188239097595215,33.95000076293945,16.309999465942383,-17.360000610351562,123
11:2:10:845,-0.18093061447143555,0.12630939483642578,-0.3750319480895996,4.773681163787842,0.8446664214134216,7.872386455535889,38.150001525878906,41.15999984741211,-43.88999938964844,123
11:2:10:888,-0.36679840087890625,0.32884418964385986,-0.32491111755371094,4.4961137771606445,1.129412293434143,7.841279983520508,34.369998931884766,26.739999771118164,-44.310001373291016,123
11:2:10:925,-0.12689828872680664,1.187662124633789,1.2331924438476562,4.704289436340332,2.2851457595825195,9.707681655883789,75.66999816894531,-1.3300000429153442,-59.779998779296875,123
11:2:10:968,1.472001552581787,1.2257826328277588,-0.2634563446044922,6.671189785003662,2.629711866378784,8.14516830444336,188.3000030517578,-1.190000057220459,-22.049999237060547,123
11:2:11:5,1.3001132011413574,1.9511550664901733,-0.5821318626403809,6.824329853057861,3.8428730964660645,7.680960178375244,237.3699951171875,54.38999938964844,-20.229999542236328,123
11:2:11:46,0.1595320701599121,6.097715377807617,0.4875955581665039,5.723631858825684,9.513862609863281,8.872586250305176,152.52999877929688,85.88999938964844,-10.149999618530273,123
11:2:11:86,-0.7931323051452637,1.2563960552215576,-1.6926360130310059,4.572684288024902,4.986642360687256,6.269195556640625,-106.05000305175781,107.66000366210938,0.7699999809265137,123
11:2:11:125,-2.162083864212036,0.721806526184082,-0.7664322853088379,2.6632115840911865,4.632504463195801,7.003791332244873,-109.34000396728516,117.25,15.539999961853027,123
11:2:11:167,-1.9708635807037354,0.11802339553833008,-0.08672475814819336,2.3617160320281982,4.058227062225342,7.661818027496338,-77.48999786376953,103.5999984741211,30.170000076293945,123
11:2:11:206,-2.137568712234497,0.10207605361938477,0.04930448532104492,1.660618782043457,4.067798614501953,7.810173511505127,-135.8699951171875,124.31999969482422,33.459999084472656,123
11:2:11:246,-2.0067648887634277,-0.20356392860412598,1.5497932434082031,1.289731502532959,3.7112677097320557,9.698110580444336,-185.7100067138672,144.1300048828125,21.489999771118164,123
11:2:11:286,-3.152132511138916,-2.144108295440674,-0.031232833862304688,-0.6436693072319031,1.234696388244629,8.109275817871094,-83.09000396728516,122.91999816894531,3.9200000762939453,123
11:2:11:326,-2.8413872718811035,-1.1295236349105835,1.2288532257080078,-1.0432707071304321,1.9669002294540405,9.67657470703125,-46.060001373291016,128.66000366210938,-7,123
11:2:11:365,-2.958414077758789,-1.740149736404419,0.1025238037109375,-1.8999011516571045,0.9212367534637451,8.575876235961914,-12.949999809265137,94.08000183105469,9.449999809265137,123
11:2:11:407,-2.2499616146087646,-1.317463755607605,-0.09409236907958984,-1.7539390325546265,1.0145567655563354,8.35573673248291,33.810001373291016,65.80000305175781,15.260000228881836,123
11:2:11:445,-2.131135940551758,-0.026014328002929688,0.42626094818115234,-2.1678972244262695,2.2995026111602783,8.98265552520752,71.88999938964844,34.02000045776367,24.71000099182129,123
11:2:11:489,-1.584310531616211,-0.08206772804260254,0.4577789306640625,-2.0171494483947754,2.2229323387145996,9.128618240356445,58.65999984741211,-7.210000038146973,30.8700008392334,123
11:2:11:526,-1.0492231845855713,0.3439970016479492,0.9003009796142578,-1.7443678379058838,2.7349963188171387,9.796216011047363,24.079999923706055,-15.539999961853027,24.989999771118164,123
11:2:11:567,-0.8891490697860718,0.4819376468658447,-0.3613147735595703,-1.8065810203552246,2.9934213161468506,8.444271087646484,32.7599983215332,-20.649999618530273,22.399999618530273,123
11:2:11:642,-0.1332133412361145,1.2546229362487793,0.26033973693847656,-1.0839486122131348,4.0797624588012695,9.131011009216309,117.18000030517578,-3.569999933242798,15.470000267028809,123
11:2:11:646,-0.2635399103164673,1.101325511932373,0.018759727478027344,-1.2801601886749268,4.201796531677246,8.894121170043945,123.34000396728516,15.470000267028809,7.630000114440918,123
11:2:11:688,-0.3850294351577759,1.78076171875,-0.44632816314697266,-1.497907042503357,5.326423168182373,8.317451477050781,91.41999816894531,36.75,1.75,123
11:2:11:727,-0.2639956474304199,2.2400832176208496,-0.6978001594543457,-1.442872166633606,6.345765590667725,7.891529560089111,100.66000366210938,35.630001068115234,6.720000267028809,123
11:2:11:766,-0.5232205390930176,1.784409999847412,-1.4139142036437988,-1.832902193069458,6.3361945152282715,6.821937084197998,153.44000244140625,30.030000686645508,-14.140000343322754,123
11:2:11:807,-0.1658942699432373,1.8773789405822754,-0.5855674743652344,-1.5170495510101318,6.898508071899414,7.503891944885254,182.6999969482422,25.34000015258789,-27.510000228881836,123
11:2:11:846,-0.5347095727920532,1.228163719177246,-1.7854633331298828,-2.0195422172546387,6.556333541870117,5.857630252838135,262.7799987792969,3.990000009536743,-41.720001220703125,123
11:2:11:945,-1.7122347354888916,3.9381461143493652,-4.40504264831543,-3.6251261234283447,10.250852584838867,2.1367905139923096,293.7900085449219,-23.940000534057617,-60.970001220703125,123
11:2:11:949,-1.6875545978546143,5.395941734313965,-1.1599254608154297,-4.022334575653076,13.057633399963379,5.091926097869873,62.650001525878906,35,-60.20000076293945,123
11:2:11:978,-2.178917407989502,2.2436113357543945,-3.2212212085723877,-5.058426856994629,10.466205596923828,2.225324869155884,6.650000095367432,49.06999969482422,-64.47000122070312,123
11:2:11:998,-2.6811206340789795,0.9430446624755859,-4.043298721313477,-6.230910301208496,9.401400566101074,0.3924228847026825,51.310001373291016,35.97999954223633,-96.87999725341797,123
11:2:12:41,-1.8252148628234863,0.33521270751953125,-3.4892354011535645,-5.831308364868164,8.877371788024902,0.07417750358581543,65.37999725341797,10.710000038146973,-105.48999786376953,124
11:2:12:82,-1.862166404724121,-0.7195878028869629,-3.202953815460205,-6.33380126953125,7.642674922943115,-0.44027936458587646,80.22000122070312,6.300000190734863,-111.6500015258789,124
11:2:12:124,-2.5464038848876953,-0.8187808990478516,-3.310837984085083,-7.654639720916748,7.338787078857422,-1.37587308883667,101.8499984741211,-49,-104.51000213623047,124
11:2:12:166,-2.5118589401245117,-1.2561020851135254,-3.4450018405914307,-8.248059272766113,6.587440490722656,-2.3712873458862305,89.38999938964844,-90.93000030517578,-88.83000183105469,124
11:2:12:207,-1.6304636001586914,-1.5619306564331055,-2.283179521560669,-7.774280071258545,5.891129493713379,-1.7802598476409912,64.33000183105469,-122.43000030517578,-72.44999694824219,124
11:2:12:310,-0.8162355422973633,-1.5156264305114746,-1.3575505018234253,-7.1641106605529785,5.55852746963501,-1.1940184831619263,51.65999984741211,-132.7899932861328,-55.22999954223633,124
11:2:12:314,-0.3811635971069336,-1.065103530883789,-0.24185259640216827,-6.824329853057861,5.742774486541748,-0.13878372311592102,33.459999084472656,-134.39999389648438,-50.470001220703125,124
11:2:12:319,-0.11350536346435547,-1.1621928215026855,0.78470379114151,-6.585048198699951,5.355136871337891,1.0839486122131348,4.900000095367432,-116.9000015258789,-52.150001525878906,124
11:2:12:365,0.24036312103271484,-1.1824359893798828,1.2020403146743774,-6.171089172363281,5.039284706115723,1.801795244216919,12.8100004196167,-114.52000427246094,-52.08000183105469,124
11:2:12:406,0.2650313377380371,-0.9861483573913574,1.6545939445495605,-6.08016300201416,4.989035129547119,2.667997360229492,23.520000457763672,-94.70999908447266,-52.08000183105469,124
11:2:12:447,0.3364524841308594,-0.6204633712768555,1.6050708293914795,-5.924628734588623,5.199604034423828,3.019742012023926,38.08000183105469,-78.68000030517578,-44.310001373291016,124
11:2:12:488,-0.37020015716552734,-1.0017352104187012,1.9081048965454102,-6.723831653594971,4.567898273468018,3.799802303314209,-1.399999976158142,-63.97999954223633,-25.829999923706055,124
11:2:12:526,0.4791145324707031,-0.34388065338134766,1.9993057250976562,-5.7547383308410645,5.139782905578613,4.390829563140869,-6.929999828338623,-65.66000366210938,-9.730000495910645,124
11:2:12:567,0.004268169403076172,-0.46270132064819336,0.9179685115814209,-6.228517532348633,4.90528678894043,3.538984537124634,-4.199999809265137,-29.889999389648438,-10.920000076293945,124
11:2:12:606,0.05127143859863281,-0.40270376205444336,1.4637069702148438,-6.168696403503418,4.864608287811279,4.450649738311768,-11.899999618530273,-13.720000267028809,-13.369999885559082,124
11:2:12:648,-0.077667236328125,-0.4063901901245117,1.1843657493591309,-6.317051887512207,4.759324073791504,4.467400074005127,-27.440000534057617,9.65999984741211,-9.100000381469727,124
11:2:12:686,-0.6402397155761719,-0.7634773254394531,0.6507823467254639,-7.039684295654297,4.211367607116699,4.096512317657471,-30.450000762939453,3.990000009536743,3.569999933242798,124
11:2:12:728,-0.8050732612609863,-0.5858964920043945,0.3521711826324463,-7.405786037445068,4.242474555969238,3.88594388961792,-40.459999084472656,6.650000095367432,7.210000038146973,124
11:2:12:767,-0.5770597457885742,-0.2696347236633301,0.2683370113372803,-7.322037220001221,4.49132776260376,3.8691940307617188,-2.6600000858306885,-1.5399999618530273,3.2200000286102295,124
11:2:12:808,-0.8598136901855469,-0.0817098617553711,0.37163877487182617,-7.81974458694458,4.658825397491455,4.065405368804932,2.870000123977661,3.990000009536743,-2.799999952316284,124
11:2:12:849,-0.17100095748901367,-0.18213748931884766,0.5155367851257324,-7.17368221282959,4.5128631591796875,4.3381876945495605,-10.289999961853027,-2.5899999141693115,-0.9800000190734863,124
11:2:12:887,-0.3167409896850586,-0.283536434173584,0.5368556976318359,-7.39860725402832,4.340579986572266,4.493720531463623,-14.140000343322754,1.5399999618530273,-0.14000000059604645,124
11:2:12:928,-0.1672515869140625,-0.06220293045043945,0.17871713638305664,-7.29093074798584,4.54636287689209,4.180261135101318,-12.600000381469727,5.809999942779541,3.3600001335144043,124
11:2:12:967,-0.863133430480957,-0.2852163314819336,-0.2417922019958496,-8.202595710754395,4.252045631408691,3.69930362701416,-12.670000076293945,10.079999923706055,0.699999988079071,124
11:2:13:9,-0.17557144165039062,0.014937877655029297,0.22196054458618164,-7.558926582336426,4.555934429168701,4.218546390533447,-18.899999618530273,-1.9600000381469727,-3.9200000762939453,124
11:2:13:47,-0.2629694938659668,-0.15267610549926758,0.27711009979248047,-7.712067127227783,4.350151538848877,4.342973232269287,-27.93000030517578,8.75,-7.420000076293945,124
11:2:13:88,-0.18166208267211914,-0.4705362319946289,0.30208683013916016,-7.676175117492676,3.9146575927734375,4.443471908569336,-34.369998931884766,-2.7300000190734863,0.699999988079071,124
11:2:13:128,-0.10130167007446289,-0.7516231536865234,0.11341381072998047,-7.621140003204346,3.445664882659912,4.2831525802612305,-30.520000457763672,8.399999618530273,3.2899999618530273,124
11:2:13:167,-0.18058300018310547,-0.38115906715393066,0.26492834091186523,-7.7455668449401855,3.720839262008667,4.500899314880371,-11.899999618530273,2.7300000190734863,7.28000020980835,124
11:2:13:209,0.2728419303894043,-0.05415964126586914,0.19662857055664062,-7.223931312561035,4.034298896789551,4.481756687164307,-10.220000267028809,2.240000009536743,5.110000133514404,124
11:2:13:247,-0.39620304107666016,-0.16009759902954102,-0.007323265075683594,-7.992027282714844,3.888336658477783,4.275973796844482,-16.8700008392334,1.8200000524520874,-3.0799999237060547,124
11:2:13:289,0.16160154342651367,0.2643451690673828,0.25448083877563477,-7.393822193145752,4.378865718841553,4.60139799118042,-30.380001068115234,11.970000267028809,-8.260000228881836,124
11:2:13:328,-0.18848514556884766,-0.43362903594970703,0.008330345153808594,-7.791030406951904,3.572484016418457,4.357330322265625,-19.809999465942383,21.559999465942383,-21.90999984741211,124
11:2:13:367,-0.698265552520752,-0.6340417861938477,-0.03162097930908203,-8.475377082824707,3.2135608196258545,4.309473514556885,-6.929999828338623,24.290000915527344,-35.42000198364258,124
11:2:13:409,-0.25424623489379883,-0.5493471622467041,-0.19566583633422852,-8.094919204711914,3.160918712615967,4.096512317657471,24.360000610351562,16.520000457763672,-35.560001373291016,124
11:2:13:448,-1.00738525390625,-0.36673593521118164,-0.5221560001373291,-9.099905014038086,3.2518460750579834,3.6394832134246826,32.27000045776367,7.559999942779541,-26.110000610351562,124
11:2:13:488,-0.16463088989257812,-1.3232598304748535,-0.032958984375,-8.298308372497559,1.9645073413848877,4.120440483093262,-2.309999942779541,-10.289999961853027,-11.899999618530273,124
11:2:13:529,-0.2982454299926758,-0.7580692768096924,0.14400196075439453,-8.506484031677246,2.3401806354522705,4.333401679992676,19.8799991607666,12.8100004196167,-9.65999984741211,124
11:2:13:568,-0.1390552520751953,-0.311659574508667,-0.23319339752197266,-8.382057189941406,2.7086753845214844,3.8979082107543945,18.760000228881836,-0.2800000011920929,-3.0799999237060547,124
11:2:13:608,-0.007874488830566406,-0.38715410232543945,-0.24781155586242676,-8.25284481048584,2.5363922119140625,3.8213374614715576,3.430000066757202,-5.809999942779541,2.240000009536743,124
11:2:13:649,0.4071798324584961,0.30092501640319824,0.050604820251464844,-7.735995292663574,3.2997026443481445,4.132404804229736,0.6299999952316284,3.3600001335144043,-1.75,124
11:2:13:688,0.10560417175292969,-0.09425520896911621,-0.08394312858581543,-8.011170387268066,2.8809585571289062,3.9768712520599365,7.420000076293945,1.399999976158142,-2.240000009536743,124
11:2:13:728,0.10554027557373047,0.28064775466918945,-0.2068953514099121,-7.984848976135254,3.3260233402252197,3.8021950721740723,-8.539999961853027,2.380000114440918,1.1200000047683716,124
11:2:13:769,0.32180070877075195,-0.007106781005859375,0.19436407089233398,-7.688138484954834,3.036492109298706,4.252045631408691,-28.84000015258789,-4.199999809265137,3.5,124
11:2:13:808,-0.07564067840576172,0.03451395034790039,-0.13739013671875,-8.104490280151367,3.0867412090301514,3.88594388961792,-21.21000099182129,3.7799999713897705,2.870000123977661,124
11:2:13:848,-0.09496879577636719,-0.18487143516540527,-0.13288307189941406,-8.147561073303223,2.8211379051208496,3.8572301864624023,-39.900001525878906,4.340000152587891,-1.3300000429153442,124
11:2:13:890,0.6112432479858398,-0.06558394432067871,0.2478313446044922,-7.288537979125977,2.9240293502807617,4.299902439117432,-18.829999923706055,9.449999809265137,-2.1700000762939453,124
11:2:13:928,0.3549966812133789,-0.6956579685211182,-0.23244333267211914,-7.456035614013672,2.1200408935546875,3.76151704788208,-22.889999389648438,28.350000381469727,-7.909999847412109,124
11:2:13:968,0.15765666961669922,-1.0350908041000366,-0.2338109016418457,-7.613961696624756,1.521835207939148,3.7016968727111816,-21.979999542236328,40.7400016784668,0.5600000023841858,124
11:2:14:10,-0.5668363571166992,-1.3066372871398926,-0.12962102890014648,-8.48016357421875,0.9236294627189636,3.7734813690185547,-8.960000038146973,62.51000213623047,2.940000057220459,123
11:2:14:48,-1.1694011688232422,-0.9859676957130432,-0.7411448955535889,-9.375079154968262,0.9978070855140686,2.9766712188720703,20.020000457763672,71.33000183105469,12.039999961853027,123
11:2:14:88,-2.8382930755615234,-0.15515470504760742,-0.7326569557189941,-11.753543853759766,1.7898313999176025,2.801995038986206,34.650001525878906,70.27999877929688,9.3100004196167,123
11:2:14:130,-2.8008852005004883,-0.4820901155471802,0.3442041873931885,-12.416357040405273,1.3423734903335571,3.964907169342041,42.84000015258789,40.67000198364258,-0.21000000834465027,123
11:2:14:168,-1.0519542694091797,0.7399117946624756,0.11839437484741211,-10.930414199829102,2.7493534088134766,3.768695831298828,46.54999923706055,27.790000915527344,8.680000305175781,123
11:2:14:217,-0.5812234878540039,-0.070404052734375,-2.372763156890869,-10.604989051818848,1.9214365482330322,0.6843472719192505,88.19999694824219,13.720000267028809,2.380000114440918,123
11:2:14:293,0.16864013671875,0.4681835174560547,-3.1807632446289062,-9.812965393066406,2.5770699977874756,-0.9188438653945923,134.47000122070312,0.7699999809265137,-9.800000190734863,123
11:2:14:297,0.5330772399902344,0.49705934524536133,-2.452726125717163,-9.315258979797363,2.730210542678833,-0.8039883971214294,85.95999908447266,-40.599998474121094,-5.460000038146973,123
11:2:14:322,1.6669011116027832,-0.6322232484817505,-3.0762791633605957,-7.764709949493408,1.442872166633606,-2.196611166000366,72.94000244140625,-37.79999923706055,-4.550000190734863,123
11:2:14:363,1.9077987670898438,0.688718318939209,-0.7133057117462158,-7.046862602233887,2.935993194580078,-0.011964112520217896,87.98999786376953,-41.09000015258789,15.470000267028809,123
11:2:14:405,0.5978240966796875,1.425790786743164,0.8573919534683228,-8.207381248474121,4.029513359069824,1.7730815410614014,34.02000045776367,-42.42000198364258,28.350000381469727,123
11:2:14:449,1.0372223854064941,0.5395553112030029,0.33369016647338867,-7.508677005767822,3.2781667709350586,1.3328022956848145,47.67000198364258,-34.29999923706055,29.049999237060547,123
11:2:14:492,-0.060352325439453125,1.8424532413482666,1.3485078811645508,-8.621339797973633,5.041677951812744,2.6847469806671143,66.36000061035156,10.289999961853027,11.550000190734863,123
11:2:14:528,0.2771415710449219,1.2212800979614258,0.30161750316619873,-8.214560508728027,4.72582483291626,1.7132610082626343,70.41999816894531,6.789999961853027,13.020000457763672,123
11:2:14:570,-0.2874784469604492,0.7128562927246094,-0.3636115789413452,-8.85105037689209,4.395615100860596,0.9571290016174316,56.349998474121094,16.729999542236328,5.039999961853027,123
11:2:14:608,-0.20701217651367188,0.08980631828308105,-0.7311685085296631,-8.82233715057373,3.7950167655944824,0.40677985548973083,45.849998474121094,15.819999694824219,12.109999656677246,123
11:2:14:650,-0.26323699951171875,0.7341783046722412,-1.1783547401428223,-8.944371223449707,4.622933387756348,-0.3349951505661011,50.68000030517578,4.340000152587891,17.079999923706055,123
11:2:14:689,0.09952068328857422,0.7443118095397949,-0.6517165899276733,-8.556733131408691,4.8191447257995605,0.02871387079358101,42.349998474121094,-7.420000076293945,16.520000457763672,123
11:2:14:729,0.14661502838134766,0.6279916763305664,-0.4409744143486023,-8.47298526763916,4.859822750091553,0.12921242415905,21.350000381469727,-12.529999732971191,20.649999618530273,123
11:2:14:770,0.5499143600463867,0.03722858428955078,-0.1211543083190918,-7.932207107543945,4.278366565704346,0.41874396800994873,7.699999809265137,-10.220000267028809,23.309999465942383,123
11:2:14:809,0.058994293212890625,0.32840728759765625,-0.18689358234405518,-8.408378601074219,4.651647090911865,0.30628129839897156,25.760000228881836,-1.399999976158142,27.860000610351562,123
11:2:14:850,0.27690696716308594,0.08661413192749023,-0.04423066973686218,-8.12123966217041,4.431507587432861,0.4378865361213684,18.200000762939453,0.21000000834465027,32.40999984741211,123
11:2:14:889,0.2559823989868164,0.25306034088134766,-0.3129519522190094,-8.078168869018555,4.661218643188477,0.09092726558446884,24.360000610351562,1.6800000667572021,36.400001525878906,123
11:2:14:932,0.6833505630493164,1.3184609413146973,-0.3135320842266083,-7.479963302612305,6.056234359741211,0.011964112520217896,12.529999732971191,11.130000114440918,47.18000030517578,123
11:2:14:968,0.7208781242370605,-0.22395610809326172,-0.1493699848651886,-7.262216091156006,4.457828521728516,0.13878372311592102,-9.800000190734863,1.6800000667572021,38.709999084472656,123
11:2:15:10,0.6417865753173828,1.2890715599060059,-0.2898649573326111,-7.180860996246338,6.293124198913574,-0.07417750358581543,6.650000095367432,9.3100004196167,44.72999954223633,123
11:2:15:49,0.10952091217041016,1.2801103591918945,-0.36397576332092285,-7.685746192932129,6.604190349578857,-0.2392822504043579,-3.430000066757202,21.6299991607666,53.619998931884766,123
11:2:15:89,-0.010010719299316406,0.3904690742492676,-0.5151488184928894,-7.8077802658081055,5.812166690826416,-0.519242525100708,-7,-2.870000123977661,48.02000045776367,123
11:2:15:130,1.0850324630737305,1.0244789123535156,0.08941658586263657,-6.441478729248047,6.702296257019043,0.10767702758312225,4.829999923706055,-10.220000267028809,56.560001373291016,123
11:2:15:169,0.11955118179321289,0.8999819755554199,-0.37066030502319336,-7.377072334289551,6.802794933319092,-0.4450649619102478,-9.449999809265137,2.240000009536743,50.470001220703125,123
11:2:15:211,0.6412043571472168,0.4577317237854004,0.22606417536735535,-6.695117950439453,6.474977493286133,0.20817556977272034,4.690000057220459,-15.190000534057617,43.81999969482422,123
11:2:15:249,0.524449348449707,1.1816596984863281,0.2957068085670471,-6.680760860443115,7.494320392608643,0.3517449200153351,4.619999885559082,2.5899999141693115,39.130001068115234,123
11:2:15:290,0.8923816680908203,0.6907310485839844,0.5313612222671509,-6.089733123779297,7.176074504852295,0.7202396392822266,-16.170000076293945,-2.940000057220459,30.170000076293945,123
11:2:15:329,1.223097801208496,1.0292353630065918,0.6490572094917297,-5.453242778778076,7.77188777923584,1.0001999139785767,-1.3300000429153442,6.579999923706055,23.59000015258789,123
11:2:15:371,0.8712797164916992,1.0952138900756836,0.5575308203697205,-5.587240695953369,8.111669540405273,1.0480562448501587,-31.010000228881836,27.3700008392334,29.75,123
11:2:15:409,0.9899053573608398,0.5603179931640625,0.055516064167022705,-5.221138954162598,7.716853141784668,0.5599204897880554,-57.81999969482422,24.149999618530273,33.880001068115234,123
11:2:15:450,1.3853445053100586,0.7085928916931152,0.329637348651886,-4.479363918304443,8.042276382446289,0.916451096534729,-53.130001068115234,34.720001220703125,42.4900016784668,123
11:2:15:490,0.2621731758117676,0.46541881561279297,-0.2569683790206909,-5.536991596221924,7.915457248687744,0.26560330390930176,-86.94000244140625,63.349998474121094,48.369998931884766,123
11:2:15:530,1.115182876586914,-0.25745582580566406,0.613727867603302,-4.405186176300049,7.128218650817871,1.289731502532959,-55.29999923706055,25.6200008392334,49.97999954223633,123
11:2:15:569,0.5284371376037598,1.5398383140563965,0.2306431531906128,-4.859822750091553,9.31047248840332,0.9643075466156006,-72.02999877929688,65.16999816894531,62.650001525878906,123
11:2:15:611,1.002769947052002,0.045031070709228516,-0.2557648718357086,-4.1347975730896,7.82692289352417,0.413958340883255,-90.86000061035156,36.88999938964844,49.90999984741211,123
11:2:15:649,0.9342999458312988,2.687272071838379,1.3899650573730469,-3.9696927070617676,11.140981674194336,2.407179594039917,-94.5,89.11000061035156,61.7400016784668,123
11:2:15:691,-0.07186222076416016,0.4997272491455078,0.20078527927398682,-4.993820667266846,9.078369140625,1.2681961059570312,-163.8699951171875,68.52999877929688,57.400001525878906,123
11:2:15:796,1.776369333267212,-0.06346893310546875,1.7054343223571777,-2.7014968395233154,8.499305725097656,3.1992037296295166,-98.9800033569336,52.849998474121094,56.209999084472656,123
11:2:15:818,0.14811420440673828,2.079793930053711,0.931725263595581,-4.292723655700684,11.162517547607422,2.65842604637146,-126.91000366210938,90.0199966430664,64.4000015258789,123
11:2:15:830,0.4381721019744873,-1.0658974647521973,0.5328975915908813,-3.893122434616089,7.750352382659912,2.392822742462158,-147.83999633789062,88.9000015258789,48.86000061035156,123
11:2:15:844,-1.1808691024780273,-0.6900057792663574,-0.448498010635376,-5.807380676269531,7.953742504119873,1.2993026971817017,32.40999984741211,150.5,-14.84000015258789,123
11:2:15:885,-1.7505979537963867,1.0674571990966797,-0.23628592491149902,-6.814758777618408,9.978070259094238,1.4524433612823486,133.35000610351562,155.25999450683594,-81.12999725341797,123
11:2:15:927,-3.1099109649658203,1.1277055740356445,-2.0382020473480225,-8.951549530029297,10.320244789123535,-0.8590233325958252,164.2899932861328,112.9800033569336,-128.02999877929688,123
11:2:15:968,-2.122305393218994,-1.0312366485595703,-2.122525930404663,-8.49452018737793,7.9034929275512695,-1.4739787578582764,175.91000366210938,3.9200000762939453,-153.50999450683594,123
11:2:16:10,-0.7062582969665527,-2.7909326553344727,-1.2271132469177246,-7.255037784576416,5.446063995361328,-0.8853443264961243,154.77000427246094,-49.84000015258789,-137.33999633789062,123
11:2:16:51,0.9874563217163086,-2.847222328186035,0.6607428193092346,-5.314458847045898,4.677968502044678,1.1676974296569824,96.66999816894531,-46.20000076293945,-72.44999694824219,123
11:2:16:90,0.990962028503418,-2.092094898223877,0.7027917504310608,-5.063212871551514,4.910072326660156,1.3854442834854126,-27.299999237060547,3.009999990463257,-4.480000019073486,123
11:2:16:131,0.7793698310852051,-2.7360894680023193,-0.13264226913452148,-5.079962730407715,3.5820553302764893,0.5168496966362,-132.3699951171875,44.59000015258789,41.02000045776367,123
11:2:16:170,0.8455500602722168,-1.6241655349731445,-1.8997735977172852,-4.802394866943359,4.287938117980957,-1.7252250909805298,-145.0399932861328,92.81999969482422,86.44999694824219,123
11:2:16:211,-0.1275486946105957,0.30481624603271484,-1.9486126899719238,-5.807380676269531,6.293124198913574,-2.2612173557281494,-138.11000061035156,124.11000061035156,114.30999755859375,123
11:2:16:250,0.2961268424987793,1.223952293395996,-0.5232765674591064,-5.309673309326172,7.518248558044434,-0.9667003750801086,-151.41000366210938,89.87999725341797,129.2899932861328,123
11:2:16:291,0.40535640716552734,2.104745388031006,0.22839802503585815,-5.099104881286621,8.925228118896484,-0.1579262912273407,-154.6999969482422,86.66000366210938,140.27999877929688,123
11:2:16:330,-0.03942441940307617,2.55861234664917,0.39137256145477295,-5.553741931915283,10.01874828338623,0.10289137810468674,-183.75,84.13999938964844,140.83999633789062,123
11:2:16:370,0.41831111907958984,2.1617469787597656,1.2395988702774048,-4.991428375244141,10.16231918334961,1.2610174417495728,-260.4700012207031,44.2400016784668,143.85000610351562,123
11:2:16:410,0.9797539710998535,0.16927528381347656,2.3431453704833984,-4.185047149658203,8.212166786193848,2.950350284576416,-207.69000244140625,50.75,114.87000274658203,123
11:2:16:451,0.7493467330932617,0.8628387451171875,3.0632705688476562,-4.228117942810059,9.121439933776855,4.436293125152588,-59.36000061035156,40.38999938964844,85.61000061035156,123
11:2:16:492,0.836845874786377,1.1114072799682617,2.5099587440490723,-3.9314074516296387,9.647860527038574,4.510470867156982,-52.43000030517578,49.06999969482422,54.459999084472656,123
11:2:16:531,0.4244518280029297,1.1724357604980469,2.1840786933898926,-4.2376885414123535,10.001997947692871,4.730610370635986,-93.23999786376953,50.68000030517578,34.02000045776367,123
11:2:16:570,0.1768488883972168,-0.38480281829833984,1.6094365119934082,-4.441079139709473,8.34855842590332,4.5583271980285645,-35.97999954223633,49.70000076293945,9.239999771118164,123
11:2:16:612,0.4113898277282715,0.08266639709472656,1.1133513450622559,-4.1036906242370605,8.83669376373291,4.340579986572266,27.649999618530273,43.470001220703125,-7.980000019073486,123
11:2:16:650,0.5396802425384521,0.08527565002441406,0.8409104347229004,-3.840480089187622,8.860621452331543,4.278366565704346,13.649999618530273,42.349998474121094,-24.149999618530273,123
11:2:16:691,0.483428955078125,-0.5787982940673828,0.46407437324523926,-3.775874137878418,8.051848411560059,4.01754903793335,-21.420000076293945,31.360000610351562,-25.34000015258789,123
11:2:16:737,0.6336824893951416,-0.5932083129882812,0.122406005859375,-3.4672000408172607,7.88913631439209,3.706482172012329,-18.760000228881836,28.559999465942383,-26.110000610351562,123
11:2:16:770,0.22172141075134277,-0.8153047561645508,0.17640924453735352,-3.823730707168579,7.463213920593262,3.8045878410339355,-11.619999885559082,26.389999389648438,-24.079999923706055,123
11:2:16:808,0.08549284934997559,-0.38233375549316406,0.2942681312561035,-3.9385859966278076,7.800601959228516,3.996013641357422,7.840000152587891,21.6299991607666,-17.43000030517578,123
11:2:16:852,-0.010090351104736328,-0.5528063774108887,0.1837296485900879,-4.036691665649414,7.491927623748779,3.9314074516296387,0.14000000059604645,12.460000038146973,-12.039999961853027,123
11:2:16:891,-0.22438335418701172,-0.3924746513366699,0.21398282051086426,-4.3070807456970215,7.554140567779541,4.015156269073486,-0.3499999940395355,8.609999656677246,-7.210000038146973,123
11:2:16:932,-0.2981905937194824,-0.29483652114868164,0.17310047149658203,-4.455435752868652,7.57806921005249,4.01754903793335,-2.940000057220459,4.480000019073486,-3.7799999713897705,123
11:2:16:971,-0.3610649108886719,-0.12867116928100586,0.08296728134155273,-4.60857629776001,7.712067127227783,3.948157548904419,-3.0799999237060547,2.7300000190734863,-1.190000057220459,123
11:2:17:12,-0.3099088668823242,-0.03593730926513672,0.026174306869506836,-4.634897232055664,7.795816421508789,3.8979082107543945,-2.6600000858306885,0.14000000059604645,0.5600000023841858,122
11:2:17:50,-0.24218463897705078,0.07270574569702148,-0.11497282981872559,-4.627718925476074,7.922636032104492,3.728017807006836,-2.240000009536743,2.1700000762939453,-1.4700000286102295,122
11:2:17:92,-0.1746053695678711,-0.24237394332885742,-0.16280603408813477,-4.603790760040283,7.546962738037109,3.6394832134246826,-1.0499999523162842,-1.75,-1.4700000286102295,122
11:2:17:132,-0.07842826843261719,-0.0694723129272461,-0.1608729362487793,-4.527220726013184,7.70249605178833,3.601198196411133,-1.8200000524520874,0.9800000190734863,-2.940000057220459,122
11:2:17:172,-0.0378570556640625,-0.14937686920166016,-0.021500110626220703,-4.4961137771606445,7.58524751663208,3.735196113586426,-1.4700000286102295,-1.4700000286102295,-1.399999976158142,122
11:2:17:214,-0.06857061386108398,-0.11375808715820312,-0.007628917694091797,-4.543970108032227,7.592426776885986,3.7471601963043213,-1.5399999618530273,-6.090000152587891,0.9800000190734863,122
11:2:17:251,0.04468488693237305,0.004705905914306641,0.028353452682495117,-4.419543266296387,7.712067127227783,3.7902309894561768,-4.269999980926514,-0.42000001668930054,-1.0499999523162842,122
11:2:17:294,-0.11164999008178711,-0.05366325378417969,0.12030982971191406,-4.603790760040283,7.640282154083252,3.912264823913574,-3.430000066757202,-0.3499999940395355,0.21000000834465027,122
11:2:17:331,0.019792556762695312,-0.21712779998779297,-0.047321319580078125,-4.467400074005127,7.422535419464111,3.7328033447265625,-2.870000123977661,-1.9600000381469727,2.0999999046325684,122
11:2:17:373,-0.012879371643066406,-0.024390220642089844,0.07891273498535156,-4.503292083740234,7.609175682067871,3.87876558303833,-5.460000038146973,0.9100000262260437,1.5399999618530273,122
11:2:17:411,-0.10793066024780273,-0.02142620086669922,0.08035850524902344,-4.625326156616211,7.606783390045166,3.900300979614258,-3.009999990463257,-2.450000047683716,5.320000171661377,122
11:2:17:452,0.024682044982910156,-0.059255123138427734,-0.04482579231262207,-4.486542701721191,7.554140567779541,3.7639100551605225,-2.450000047683716,1.1200000047683716,3.9200000762939453,122
11:2:17:491,-0.0817098617553711,0.010024070739746094,-0.009061336517333984,-4.6133623123168945,7.625925540924072,3.7974092960357666,-3.7799999713897705,0.5600000023841858,3.2899999618530273,122
11:2:17:533,-0.05388212203979492,-0.08195066452026367,-0.14124703407287598,-4.599005222320557,7.513463020324707,3.6299118995666504,1.6800000667572021,-6.440000057220459,7.769999980926514,122
11:2:17:571,0.044950008392333984,0.24263477325439453,0.011429071426391602,-4.488935470581055,7.898707389831543,3.785445213317871,1.3300000429153442,-1.75,4.130000114440918,122
11:2:17:613,-0.004239082336425781,-0.07005977630615234,0.020628929138183594,-4.5391845703125,7.568498134613037,3.799802303314209,-5.039999961853027,-2.0999999046325684,3.1500000953674316,122
11:2:17:652,0.0061798095703125,-0.023505687713623047,-0.0007252693176269531,-4.527220726013184,7.609175682067871,3.778266668319702,-2.7300000190734863,-4.340000152587891,4.96999979019165,122
11:2:17:693,0.0260009765625,0.12093639373779297,0.053019046783447266,-4.500899314880371,7.783851623535156,3.8452658653259277,-4.760000228881836,-1.0499999523162842,3.2200000286102295,122
11:2:17:731,0.03228616714477539,-0.0008778572082519531,0.0519866943359375,-4.486542701721191,7.661818027496338,3.8572301864624023,-3.0799999237060547,-1.0499999523162842,3.1500000953674316,122
11:2:17:773,0.06219959259033203,0.060553550720214844,0.0013899803161621094,-4.441079139709473,7.7383880615234375,3.806980848312378,-4.269999980926514,-1.5399999618530273,3.8499999046325684,122
11:2:17:812,0.03636026382446289,0.05992841720581055,-0.01228785514831543,-4.457828521728516,7.752745151519775,3.7902309894561768,-3.430000066757202,-1.5399999618530273,2.6600000858306885,122
11:2:17:853,0.0616307258605957,0.053685665130615234,0.043769121170043945,-4.417150497436523,7.759923934936523,3.8572301864624023,-3.009999990463257,-1.0499999523162842,3.3600001335144043,122
11:2:17:892,0.09524679183959961,-0.02405071258544922,-0.03198385238647461,-4.35972261428833,7.676175117492676,3.7734813690185547,-2.870000123977661,-2.309999942779541,3.7100000381469727,122
11:2:17:933,0.06854009628295898,0.028615474700927734,-0.05238676071166992,-4.369294166564941,7.735995292663574,3.7399816513061523,-2.309999942779541,-1.190000057220459,2.799999952316284,122
11:2:17:972,0.056746482849121094,-0.015393257141113281,-0.0036242008209228516,-4.366901397705078,7.688138484954834,3.7878382205963135,-2.1700000762939453,-3.2200000286102295,3.8499999046325684,122
11:2:18:13,0.07985401153564453,0.062342166900634766,0.012414693832397461,-4.323830604553223,7.781459331512451,3.806980848312378,-1.8899999856948853,-3.2899999618530273,3.9200000762939453,121
11:2:18:51,0.10025453567504883,0.09198713302612305,0.13435840606689453,-4.278366565704346,7.83410120010376,3.9625141620635986,-1.1200000047683716,-2.0999999046325684,3.9200000762939453,121
11:2:18:93,0.053403377532958984,-0.01638031005859375,0.0768587589263916,-4.311866760253906,7.7216386795043945,3.924229145050049,-2.7300000190734863,-1.75,2.940000057220459,121
11:2:18:132,0.12886476516723633,0.029008865356445312,0.05765843391418457,-4.204189300537109,7.774280071258545,3.919443368911743,-1.9600000381469727,-1.399999976158142,3.7799999713897705,121
11:2:18:173,0.03609275817871094,-0.038048744201660156,0.09781193733215332,-4.287938117980957,7.697710037231445,3.9840497970581055,-2.5899999141693115,-0.6299999952316284,3.3600001335144043,121
11:2:18:213,0.038445472717285156,-0.015124320983886719,0.041878461837768555,-4.275973796844482,7.716853141784668,3.9385859966278076,-3.569999933242798,0.21000000834465027,3.5,121
11:2:18:252,-0.005614280700683594,-0.012099266052246094,0.029674291610717773,-4.321437358856201,7.716853141784668,3.933800458908081,-2.0299999713897705,0.3499999940395355,4.340000152587891,121
11:2:18:293,-0.037034034729003906,0.1147470474243164,0.07733869552612305,-4.362115383148193,7.872386455535889,4.000799655914307,-3.569999933242798,0.3499999940395355,3.7799999713897705,121
11:2:18:333,-0.025799274444580078,0.15688228607177734,0.10398435592651367,-4.357330322265625,7.953742504119873,4.053441524505615,-4.760000228881836,0.49000000953674316,1.9600000381469727,121
11:2:18:372,-0.06083822250366211,0.07190656661987305,0.012360095977783203,-4.407578945159912,7.886743545532227,3.964907169342041,-4.829999923706055,2.6600000858306885,0.49000000953674316,121
11:2:18:414,-0.0161285400390625,-0.09944438934326172,-0.08199644088745117,-4.366901397705078,7.6905317306518555,3.8500516414642334,-4.340000152587891,3.5,0.7699999809265137,121
11:2:18:452,0.06749629974365234,-0.050841331481933594,-0.19768095016479492,-4.266402721405029,7.726424217224121,3.6849470138549805,-3.5,2.870000123977661,2.799999952316284,121
11:2:18:495,0.042511940002441406,-0.07130146026611328,-0.12943100929260254,-4.280759334564209,7.688138484954834,3.720839262008667,-4.059999942779541,2.380000114440918,2.380000114440918,121
11:2:18:533,0.07612276077270508,0.008043766021728516,-0.032717227935791016,-4.228117942810059,7.769494533538818,3.809373617172241,-3.7100000381469727,0.5600000023841858,3.7100000381469727,121
11:2:18:573,0.07621288299560547,0.021749496459960938,-0.09125852584838867,-4.208974838256836,7.788637638092041,3.728017807006836,-3.640000104904175,1.2599999904632568,3.2200000286102295,121
11:2:18:612,0.011198997497558594,0.021228313446044922,0.003563404083251953,-4.271188735961914,7.793423175811768,3.823730707168579,-1.6100000143051147,0.49000000953674316,4.900000095367432,121
11:2:18:654,-0.05612516403198242,0.06675291061401367,0.050707101821899414,-4.35254430770874,7.855636119842529,3.8835511207580566,-4.199999809265137,0.07000000029802322,4.130000114440918,121
11:2:18:691,0.002956390380859375,0.024689197540283203,0.029079914093017578,-4.292723655700684,7.81974458694458,3.8691940307617188,-4.130000114440918,1.4700000286102295,3.2200000286102295,121
11:2:18:734,-0.028263092041015625,0.02932262420654297,0.03666377067565918,-4.3310089111328125,7.8317084312438965,3.88594388961792,-3.430000066757202,2.380000114440918,2.380000114440918,121
11:2:18:773,-0.03983879089355469,0.11342811584472656,0.03507375717163086,-4.35254430770874,7.944170951843262,3.893122434616089,-5.599999904632568,1.75,2.0999999046325684,121
11:2:18:813,-0.010814189910888672,-0.03368425369262695,0.016573429107666016,-4.326223373413086,7.788637638092041,3.87876558303833,-4.900000095367432,2.240000009536743,1.8899999856948853,121
11:2:18:854,-0.03927898406982422,-0.06331872940063477,0.05920076370239258,-4.364508152008057,7.743173599243164,3.9361932277679443,-6.369999885559082,3.0799999237060547,1.75,121
11:2:18:893,-0.0639657974243164,-0.0985112190246582,-0.06940913200378418,-4.405186176300049,7.683353424072266,3.7902309894561768,-4.96999979019165,4.480000019073486,1.6800000667572021,121
11:2:18:933,-0.09137248992919922,-0.042438507080078125,-0.05169868469238281,-4.455435752868652,7.728816509246826,3.7950167655944824,-4.199999809265137,4.269999980926514,1.6100000143051147,121
11:2:18:974,-0.06926918029785156,0.017734527587890625,-0.17344284057617188,-4.450649738311768,7.793423175811768,3.6299118995666504,-4.199999809265137,2.450000047683716,1.190000057220459,121
11:2:19:13,-0.015216350555419922,0.13095760345458984,-0.0526127815246582,-4.4004011154174805,7.939385414123535,3.73758864402771,-4.269999980926514,-0.14000000059604645,1.4700000286102295,121
11:2:19:53,0.02611255645751953,0.07413721084594727,-0.09186077117919922,-4.35254430770874,7.901099681854248,3.675375461578369,-5.53000020980835,-0.9800000190734863,1.4700000286102295,121
11:2:19:94,0.0630035400390625,-0.023003101348876953,-0.0007467269897460938,-4.299902439117432,7.798208713531494,3.7663028240203857,-4.829999923706055,-1.4700000286102295,-1.1200000047683716,121
11:2:19:133,0.09251689910888672,-0.29979848861694336,0.11042976379394531,-4.247260093688965,7.4464640617370605,3.9050867557525635,-7.420000076293945,0.14000000059604645,-0.6299999952316284,121
11:2:19:173,0.02232837677001953,-0.23026752471923828,0.09025764465332031,-4.311866760253906,7.458428382873535,3.9074790477752686,-1.4700000286102295,1.8899999856948853,3.2899999618530273,121
11:2:19:215,-0.10082101821899414,-0.0004458427429199219,0.04923534393310547,-4.460221290588379,7.688138484954834,3.87876558303833,-0.3499999940395355,1.1200000047683716,6.440000057220459,121
11:2:19:253,-0.09979963302612305,0.19681262969970703,0.014502763748168945,-4.484149932861328,7.934599876403809,3.847658634185791,-1.8899999856948853,0.699999988079071,4.900000095367432,121
11:2:19:294,-0.08175373077392578,0.17659282684326172,0.057544708251953125,-4.486542701721191,7.9585280418396,3.9050867557525635,-4.130000114440918,0.49000000953674316,1.5399999618530273,121
11:2:19:333,-0.04625988006591797,0.009190559387207031,-0.020963668823242188,-4.462614059448242,7.793423175811768,3.8213374614715576,-5.25,0.699999988079071,-0.2800000011920929,121
11:2:19:374,0.08167552947998047,-0.1189885139465332,-0.07611274719238281,-4.3142595291137695,7.635497093200684,3.7471601963043213,-4.199999809265137,0.49000000953674316,0.14000000059604645,121
11:2:19:417,0.021312713623046875,-0.0339350700378418,-0.03600502014160156,-4.369294166564941,7.712067127227783,3.778266668319702,-3.9200000762939453,1.190000057220459,0.42000001668930054,121
11:2:19:453,-0.021234989166259766,-0.06734752655029297,-0.023061275482177734,-4.417150497436523,7.661818027496338,3.785445213317871,-3.3600001335144043,0.07000000029802322,1.8899999856948853,121
11:2:19:494,-0.02273082733154297,0.04949188232421875,0.006436586380004883,-4.4243292808532715,7.791030406951904,3.81655216217041,-4.130000114440918,0.07000000029802322,2.6600000858306885,121
11:2:19:533,-0.05455493927001953,0.03576517105102539,0.0032351016998291016,-4.469792366027832,7.786244869232178,3.814159393310547,-2.309999942779541,1.1200000047683716,1.8200000524520874,121
11:2:19:575,-0.04172992706298828,-0.05561542510986328,0.054273128509521484,-4.467400074005127,7.680960178375244,3.87876558303833,-4.550000190734863,0.9800000190734863,0.9100000262260437,121
11:2:19:613,0.048929691314697266,-0.10574817657470703,0.04341840744018555,-4.364508152008057,7.6043901443481445,3.87876558303833,-4.690000057220459,1.0499999523162842,1.1200000047683716,121
11:2:19:696,0.04297208786010742,-0.18222522735595703,-0.06672096252441406,-4.35972261428833,7.482356548309326,3.751945972442627,-3.7100000381469727,2.0299999713897705,2.450000047683716,121
11:2:19:701,0.009491920471191406,0.028417110443115234,-0.059119462966918945,-4.390829563140869,7.700103282928467,3.744767427444458,-2.7300000190734863,1.1200000047683716,4.199999809265137,121
11:2:19:732,0.024821758270263672,0.04570436477661133,-0.026238679885864258,-4.369294166564941,7.728816509246826,3.7710886001586914,-4.409999847412109,0.5600000023841858,4.340000152587891,121
11:2:19:771,0.033257484436035156,0.0652780532836914,0.005808353424072266,-4.35254430770874,7.764709949493408,3.8045878410339355,-3.0799999237060547,1.3300000429153442,3.5,121
11:2:19:812,-0.04422187805175781,-0.00903463363647461,0.01421809196472168,-4.441079139709473,7.688138484954834,3.81655216217041,-3.990000009536743,0.8400000333786011,3.0799999237060547,121
11:2:19:853,-0.048777103424072266,0.0712575912475586,0.026688575744628906,-4.457828521728516,7.786244869232178,3.8356947898864746,-3.9200000762939453,1.4700000286102295,2.380000114440918,121
11:2:19:895,0.006920337677001953,0.043605804443359375,-0.03416275978088379,-4.4004011154174805,7.769494533538818,3.7663028240203857,-3.990000009536743,1.1200000047683716,3.009999990463257,121
11:2:19:934,-0.007863044738769531,-0.0014853477478027344,-0.010101795196533203,-4.417150497436523,7.724031925201416,3.7878382205963135,-2.940000057220459,0.6299999952316284,3.009999990463257,121
11:2:19:975,0.026251792907714844,0.0658102035522461,0.0282895565032959,-4.376472473144531,7.8077802658081055,3.8333017826080322,-3.7100000381469727,0.2800000011920929,3.1500000953674316,121
11:2:20:14,-0.019197940826416016,0.006705760955810547,0.007317781448364258,-4.426721572875977,7.750352382659912,3.814159393310547,-3.0799999237060547,-0.14000000059604645,3.7799999713897705,121
11:2:20:55,-0.0019588470458984375,-0.021434783935546875,-0.02477407455444336,-4.409972190856934,7.716853141784668,3.775874137878418,-2.7300000190734863,-0.07000000029802322,3.640000104904175,121
11:2:20:94,-0.02262401580810547,0.0709080696105957,0.04335141181945801,-4.436293125152588,7.82692289352417,3.854837417602539,-4.059999942779541,0.5600000023841858,2.940000057220459,121
11:2:20:135,0.025928497314453125,-0.05430126190185547,0.04425239562988281,-4.381258487701416,7.688138484954834,3.8668015003204346,-4.059999942779541,0.9800000190734863,3.0799999237060547,121
11:2:20:174,-0.032855987548828125,0.006330013275146484,-0.08902502059936523,-4.448256969451904,7.750352382659912,3.7112677097320557,-3.0799999237060547,1.399999976158142,2.5199999809265137,121
11:2:20:216,0.040714263916015625,0.026120662689208984,-0.0482487678527832,-4.364508152008057,7.776673316955566,3.7399816513061523,-4.619999885559082,-0.8400000333786011,2.6600000858306885,121
11:2:20:254,0.024914264678955078,0.03238201141357422,-0.029027462005615234,-4.374079704284668,7.791030406951904,3.751945972442627,-3.7799999713897705,-1.1200000047683716,2.6600000858306885,121
11:2:20:296,0.010359764099121094,-0.002808094024658203,0.0227200984954834,-4.386044025421143,7.755138397216797,3.809373617172241,-3.009999990463257,-0.699999988079071,2.380000114440918,121
11:2:20:334,-0.014683246612548828,-0.046274662017822266,0.006690502166748047,-4.41475772857666,7.700103282928467,3.7950167655944824,-3.009999990463257,-1.190000057220459,2.7300000190734863,121
11:2:20:375,-0.006003379821777344,0.024236202239990234,0.04555177688598633,-4.407578945159912,7.776673316955566,3.8452658653259277,-3.1500000953674316,-1.9600000381469727,2.309999942779541,121
11:2:20:415,0.023910999298095703,0.04236030578613281,0.00964212417602539,-4.371686935424805,7.805387496948242,3.8117666244506836,-2.6600000858306885,-1.8200000524520874,1.399999976158142,121
11:2:20:455,0.042099952697753906,0.014745712280273438,0.05365562438964844,-4.342973232269287,7.781459331512451,3.8691940307617188,-3.009999990463257,-2.0999999046325684,1.2599999904632568,121
11:2:20:496,0.06813669204711914,-0.022660255432128906,-0.03747415542602539,-4.299902439117432,7.7383880615234375,3.768695831298828,-3.640000104904175,-1.4700000286102295,0.42000001668930054,121
11:2:20:536,0.0487666130065918,0.025899887084960938,0.07339048385620117,-4.3070807456970215,7.793423175811768,3.8979082107543945,-2.6600000858306885,-1.190000057220459,1.4700000286102295,121
11:2:20:574,0.05432748794555664,-0.05585050582885742,0.03574109077453613,-4.287938117980957,7.697710037231445,3.8691940307617188,-3.5,-0.6299999952316284,1.75,121
11:2:20:616,0.04920482635498047,0.03954744338989258,-0.007777690887451172,-4.280759334564209,7.802994728088379,3.823730707168579,-3.430000066757202,0.6299999952316284,1.4700000286102295,121
11:2:20:655,-0.04294919967651367,-0.00856161117553711,0.049291133880615234,-4.383650779724121,7.752745151519775,3.893122434616089,-2.1700000762939453,0.49000000953674316,2.0999999046325684,121
11:2:20:696,0.013496875762939453,0.06780719757080078,0.01837611198425293,-4.323830604553223,7.846065521240234,3.8668015003204346,-4.480000019073486,-0.14000000059604645,1.8899999856948853,121
11:2:20:735,0.05673980712890625,-0.05678129196166992,-0.0006134510040283203,-4.266402721405029,7.707281589508057,3.847658634185791,-3.1500000953674316,0.49000000953674316,1.399999976158142,121
11:2:20:776,0.06836318969726562,-0.051167964935302734,0.010995149612426758,-4.2376885414123535,7.700103282928467,3.862015962600708,-3.569999933242798,-0.21000000834465027,2.380000114440918,121
11:2:20:815,0.010662555694580078,-0.006478309631347656,0.0068817138671875,-4.292723655700684,7.743173599243164,3.8596229553222656,-3.990000009536743,0.7699999809265137,2.240000009536743,121
11:2:20:856,-0.0029554367065429688,0.031188488006591797,0.009333610534667969,-4.3070807456970215,7.788637638092041,3.864408254623413,-2.240000009536743,0.5600000023841858,3.2200000286102295,121
11:2:20:895,-0.038735389709472656,-0.026733875274658203,0.005553007125854492,-4.35254430770874,7.724031925201416,3.862015962600708,-4.059999942779541,0.9100000262260437,2.7300000190734863,121
11:2:20:936,-0.03290271759033203,0.04178333282470703,0.014013528823852539,-4.354937553405762,7.802994728088379,3.8739798069000244,-3.2200000286102295,0.6299999952316284,3.430000066757202,121
11:2:20:975,-0.026322364807128906,0.02194070816040039,-0.02516031265258789,-4.354937553405762,7.788637638092041,3.8285160064697266,-3.9200000762939453,2.450000047683716,2.1700000762939453,121
11:2:21:16,-0.024886131286621094,0.015638351440429688,-0.06989884376525879,-4.35972261428833,7.786244869232178,3.7663028240203857,-2.309999942779541,1.3300000429153442,3.640000104904175,122
11:2:21:53,-0.029480457305908203,-0.07937335968017578,-0.06357622146606445,-4.371686935424805,7.671389579772949,3.7567315101623535,-2.799999952316284,1.1200000047683716,3.2899999618530273,122
11:2:21:96,-0.027412891387939453,0.057099342346191406,-0.07000350952148438,-4.376472473144531,7.822136878967285,3.7328033447265625,-1.8200000524520874,-0.2800000011920929,3.8499999046325684,122
11:2:21:133,-0.07744407653808594,0.12225008010864258,-0.01963210105895996,-4.445864677429199,7.917850017547607,3.778266668319702,-2.0999999046325684,-2.0999999046325684,3.0799999237060547,122
11:2:21:170,0.03950071334838867,0.10162878036499023,0.035979509353637695,-4.319044589996338,7.922636032104492,3.8428730964660645,-4.059999942779541,-2.0299999713897705,1.0499999523162842,122
11:2:21:213,0.02585744857788086,-0.04312419891357422,0.024955272674560547,-4.326223373413086,7.767102241516113,3.838087558746338,-1.8200000524520874,-2.380000114440918,1.8200000524520874,122
11:2:21:254,0.051314353942871094,-0.013442516326904297,0.023792743682861328,-4.287938117980957,7.793423175811768,3.8428730964660645,-4.269999980926514,-0.21000000834465027,1.8200000524520874,122
11:2:21:297,0.06210803985595703,-0.05286741256713867,0.07837629318237305,-4.261617183685303,7.740781307220459,3.91705060005188,-1.3300000429153442,-0.8400000333786011,3.640000104904175,122
11:2:21:343,0.06691455841064453,-0.023150920867919922,-0.10001087188720703,-4.240081787109375,7.764709949493408,3.713660717010498,-3.430000066757202,0.3499999940395355,2.6600000858306885,122
11:2:21:375,-0.015381813049316406,0.0695347785949707,-0.06278038024902344,-4.326223373413086,7.874779224395752,3.735196113586426,-1.399999976158142,0.14000000059604645,3.2200000286102295,122
11:2:21:417,0.027894020080566406,0.011600017547607422,-0.1114802360534668,-4.275973796844482,7.81974458694458,3.658626079559326,-2.309999942779541,-0.49000000953674316,2.940000057220459,122
11:2:21:455,0.018486976623535156,0.020765304565429688,-0.029842376708984375,-4.280759334564209,7.83410120010376,3.7328033447265625,-3.8499999046325684,-1.0499999523162842,3.009999990463257,122
11:2:21:497,-0.0005249977111816406,0.01852703094482422,0.05652499198913574,-4.299902439117432,7.836494445800781,3.8333017826080322,-0.5600000023841858,0.07000000029802322,3.640000104904175,122
11:2:21:533,-0.002334117889404297,-0.0062351226806640625,0.024163246154785156,-4.302295207977295,7.810173511505127,3.806980848312378,-4.269999980926514,-1.2599999904632568,4.199999809265137,122
11:2:21:576,0.019189834594726562,0.006496906280517578,-0.0017261505126953125,-4.275973796844482,7.824529647827148,3.7806599140167236,-2.0999999046325684,-1.2599999904632568,4.480000019073486,122
11:2:21:616,0.024922847747802734,0.045397281646728516,0.038818359375,-4.264009952545166,7.874779224395752,3.830909013748169,-3.2200000286102295,-1.0499999523162842,5.25,122
11:2:21:657,0.01993846893310547,-0.042166709899902344,-0.05508685111999512,-4.264009952545166,7.776673316955566,3.7232320308685303,-3.5,-0.42000001668930054,4.690000057220459,122
11:2:21:696,0.10592126846313477,-0.12178897857666016,-0.11298274993896484,-4.151546955108643,7.6666035652160645,3.6370904445648193,-3.8499999046325684,9.380000114440918,4.409999847412109,122
11:2:21:737,-0.043519020080566406,-0.13380193710327148,0.03786897659301758,-4.311866760253906,7.621140003204346,3.7974092960357666,2.940000057220459,3.5,6.929999828338623,122
11:2:21:776,-0.15158462524414062,-0.1070413589477539,-0.34107065200805664,-4.457828521728516,7.621140003204346,3.3332018852233887,15.329999923706055,-52.150001525878906,20.299999237060547,122
11:2:21:817,0.03570127487182617,-0.33257246017456055,-0.6652791500091553,-4.261617183685303,7.312465667724609,2.8426735401153564,-24.360000610351562,-71.4000015258789,24.5,122
11:2:21:856,0.6124098300933838,-2.4865975379943848,-0.11300110816955566,-3.531806230545044,4.5367913246154785,3.366701364517212,10.640000343322754,-98.9800033569336,51.2400016784668,122
11:2:21:897,1.7284529209136963,-2.71669602394104,-0.2148275375366211,-1.9836499691009521,3.627518892288208,3.211168050765991,31.71000099182129,-95.9000015258789,89.45999908447266,122
11:2:21:936,2.732314348220825,-2.173356771469116,-0.2005760669708252,-0.2967100143432617,3.627518892288208,3.1752755641937256,3.2899999618530273,-73.63999938964844,128.3800048828125,122
11:2:21:977,2.8922126293182373,-2.2746775150299072,-0.8495936393737793,0.5862415432929993,2.957528829574585,2.313859462738037,3.3600001335144043,-67.19999694824219,192.0800018310547,122
11:2:22:16,3.5063529014587402,-1.410090446472168,-2.641789436340332,2.076970100402832,3.469593048095703,-0.13878372311592102,62.720001220703125,-94.56999969482422,244.9300079345703,123
11:2:22:57,5.990407466888428,-1.3309838771820068,-2.27231502532959,6.058626651763916,3.2159535884857178,-0.33738797903060913,170.8699951171875,-99.81999969482422,282.1000061035156,123
11:2:22:96,10.207761764526367,3.680659294128418,-5.3228583335876465,12.827921867370605,9.147761344909668,-4.718646049499512,497.9800109863281,-77,258.5799865722656,123
11:2:22:137,9.134824752807617,3.469033718109131,-6.224229335784912,14.038690567016602,9.803394317626953,-7.176074504852295,567.97998046875,45.08000183105469,232.47000122070312,123
11:2:22:177,6.421558856964111,6.132835865020752,-2.3357932567596436,12.930814743041992,14.000405311584473,-3.871586799621582,-255.29000854492188,-0.6299999952316284,332.010009765625,123
11:2:22:217,1.8562078475952148,0.24887895584106445,-4.360998630523682,8.82951545715332,8.178668022155762,-6.98704195022583,-497.2799987792969,-137.6199951171875,291.2699890136719,123
11:2:22:259,2.237269401550293,-3.43415904045105,-2.0320487022399902,9.76989459991455,3.6370904445648193,-5.166104316711426,-264.17999267578125,-219.24000549316406,202.3699951171875,123
11:2:22:297,1.091111183166504,7.248928070068359,6.638213634490967,8.896513938903809,16.132410049438477,5.1637115478515625,507.5,128.8699951171875,-128.30999755859375,123
11:2:22:338,2.6856918334960938,-1.048159122467041,-1.9846668243408203,11.162517547607422,7.573283672332764,-3.9553356170654297,-105.06999969482422,-45.9900016784668,25.40999984741211,123
11:2:22:376,-1.2205414772033691,-3.9281399250030518,-2.592719316482544,6.9511494636535645,3.7112677097320557,-5.2115678787231445,-94.70999908447266,50.33000183105469,25.059999465942383,123
11:2:22:419,-0.07481765747070312,-3.70530366897583,-0.6614530086517334,8.078168869018555,3.0077781677246094,-3.445664882659912,-76.51000213623047,-35.42000198364258,37.72999954223633,123
11:2:22:456,-0.4331340789794922,-3.0695273876190186,-0.9617846012115479,7.611568450927734,2.8761727809906006,-3.9864425659179688,-77.27999877929688,-1.8200000524520874,26.25,123
11:2:22:498,0.5263948440551758,-2.375223159790039,-0.476546049118042,8.702695846557617,2.9766712188720703,-3.620340585708618,-12.319999694824219,-9.65999984741211,24.71000099182129,123
11:2:22:600,0.4192018508911133,-1.5862400531768799,0.1796407699584961,8.700303077697754,3.369094133377075,-2.919243574142456,-20.229999542236328,-0.42000001668930054,17.290000915527344,123
11:2:22:604,0.6626987457275391,-1.7073569297790527,0.23368287086486816,9.109475135803223,2.8211379051208496,-2.8067808151245117,-31.5,-3.569999933242798,15.75,123
11:2:22:609,0.6909570693969727,-1.9152777194976807,0.003177165985107422,9.31047248840332,2.1343977451324463,-3.036492109298706,-2.799999952316284,8.050000190734863,2.799999952316284,123
11:2:22:655,0.43216705322265625,-1.3541960716247559,0.26862382888793945,9.159724235534668,2.3569302558898926,-2.7038896083831787,4.900000095367432,0.5600000023841858,-2.309999942779541,123
11:2:22:696,-0.06966018676757812,-0.8842740058898926,-0.06458258628845215,8.640481948852539,2.6057839393615723,-3.053241729736328,20.579999923706055,6.440000057220459,-7.070000171661377,123
11:2:22:738,0.16249752044677734,0.07742643356323242,0.41541314125061035,8.913264274597168,3.586841106414795,-2.469392776489258,18.899999618530273,-3.2200000286102295,0.14000000059604645,123
11:2:22:776,-0.013570785522460938,-0.09502792358398438,-0.1481482982635498,8.733802795410156,3.390629768371582,-3.06999135017395,-0.21000000834465027,0.7699999809265137,2.380000114440918,123
11:2:22:817,0.06188488006591797,-0.1468501091003418,-0.03429150581359863,8.824729919433594,3.3020951747894287,-2.964707374572754,-11.6899995803833,-4.199999809265137,9.100000381469727,123
11:2:22:858,0.21413421630859375,-0.3663334846496582,0.11613631248474121,9.030512809753418,2.991028308868408,-2.785245418548584,-20.3700008392334,-1.0499999523162842,10.569999694824219,123
11:2:22:897,0.16173553466796875,-0.6146624088287354,-0.06406021118164062,9.018548011779785,2.589033842086792,-2.981456995010376,-17.56999969482422,-0.7699999809265137,10.569999694824219,123
11:2:22:938,-0.067779541015625,-0.37878847122192383,-0.22544550895690918,8.772088050842285,2.730210542678833,-3.1992037296295166,-24.219999313354492,-14,13.020000457763672,123
11:2:22:977,0.0797739028930664,-0.5346560478210449,-0.0923006534576416,8.939584732055664,2.4406790733337402,-3.0891339778900146,-13.230000495910645,-7.420000076293945,10.149999618530273,123
11:2:23:18,-0.060606956481933594,-0.16930007934570312,0.2056412696838379,8.784051895141602,2.7637100219726562,-2.7397818565368652,-6.720000267028809,-13.020000457763672,7.349999904632568,123
11:2:23:57,0.20611095428466797,-0.032070159912109375,0.007544040679931641,9.10229778289795,2.8929224014282227,-2.935993194580078,-7,-8.680000305175781,8.050000190734863,123
11:2:23:98,-0.19690608978271484,-0.0620269775390625,-0.2887604236602783,8.650053977966309,2.847458839416504,-3.304487943649292,-8.539999961853027,-3.7100000381469727,11.0600004196167,123
11:2:23:137,-0.057984352111816406,0.013549327850341797,-0.3094933032989502,8.774479866027832,2.926422357559204,-3.4025940895080566,-5.880000114440918,-5.599999904632568,7.909999847412109,123
11:2:23:178,-0.008101463317871094,-0.04850292205810547,-0.19016671180725098,8.82233715057373,2.8522443771362305,-3.3308091163635254,-0.8400000333786011,-2.940000057220459,6.789999961853027,123
11:2:23:218,-0.11367988586425781,-0.1995999813079834,-0.1425621509552002,8.688338279724121,2.651247262954712,-3.31884503364563,0.9100000262260437,-1.6800000667572021,4.059999942779541,123
11:2:23:257,0.03731250762939453,-0.16733670234680176,-0.17722034454345703,8.848658561706543,2.641676187515259,-3.397808313369751,2.0299999713897705,-0.21000000834465027,1.8899999856948853,123
11:2:23:299,-0.2036905288696289,-0.2563817501068115,-0.34468722343444824,8.556733131408691,2.4885356426239014,-3.651447057723999,2.7300000190734863,3.5,-1.3300000429153442,123
11:2:23:337,0.12035846710205078,-0.04239344596862793,-0.05943894386291504,8.910871505737305,2.691925525665283,-3.38105845451355,0.6299999952316284,4.900000095367432,-3.7799999713897705,123
11:2:23:378,0.12691497802734375,-0.08751392364501953,0.16876006126403809,8.949156761169434,2.6249265670776367,-3.1106693744659424,14.420000076293945,3.640000104904175,-4.340000152587891,123
11:2:23:417,0.08621788024902344,0.13481450080871582,0.10820841789245605,8.930014610290527,2.8809585571289062,-3.1441688537597656,12.25,1.3300000429153442,-3.3600001335144043,123
11:2:23:458,0.01920318603515625,0.20930719375610352,-0.06274557113647461,8.86780071258545,3.0077781677246094,-3.3308091163635254,-1.0499999523162842,1.0499999523162842,4.269999980926514,123
11:2:23:498,-0.032494544982910156,0.056418657302856445,-0.009996891021728516,8.807979583740234,2.8689942359924316,-3.280559778213501,-7.349999904632568,0.42000001668930054,3.8499999046325684,123
11:2:23:537,0.03717613220214844,-0.21903252601623535,-0.08648228645324707,8.886943817138672,2.538784980773926,-3.3786656856536865,-8.329999923706055,-0.14000000059604645,4.96999979019165,123
11:2:23:580,-0.11957168579101562,-0.1981973648071289,-0.17064142227172852,8.700303077697754,2.51007080078125,-3.5054850578308105,-6.300000190734863,0.42000001668930054,5.110000133514404,123
11:2:23:618,0.08236885070800781,-0.11644411087036133,-0.08099985122680664,8.922836303710938,2.562713146209717,-3.436093330383301,-1.0499999523162842,-0.07000000029802322,3.569999933242798,123
11:2:23:658,-0.027904510498046875,0.021700143814086914,0.017513275146484375,8.805586814880371,2.706282377243042,-3.3332018852233887,-2.6600000858306885,0.14000000059604645,1.75,123
11:2:23:698,-0.008923530578613281,-0.06686735153198242,-0.020446062088012695,8.82233715057373,2.6009981632232666,-3.376272678375244,-3.5,2.240000009536743,1.6800000667572021,123
11:2:23:738,-0.032024383544921875,0.026905059814453125,-0.00678563117980957,8.791230201721191,2.7014968395233154,-3.3643085956573486,-1.5399999618530273,2.5199999809265137,2.240000009536743,123
11:2:23:779,-0.01604747772216797,-0.041646480560302734,0.00797128677368164,8.803194999694824,2.6225337982177734,-3.3475589752197266,-0.9800000190734863,2.309999942779541,1.75,123
11:2:23:818,0.05033302307128906,0.033681631088256836,0.04083395004272461,8.882158279418945,2.706282377243042,-3.304487943649292,-1.8899999856948853,1.9600000381469727,2.240000009536743,123
11:2:23:858,0.019208908081054688,0.08437299728393555,0.04415273666381836,8.855835914611816,2.778067111968994,-3.290131092071533,-2.450000047683716,0.6299999952316284,2.0999999046325684,123
11:2:23:899,-0.06886005401611328,0.023470401763916016,-0.08527636528015137,8.7505521774292,2.723031997680664,-3.4408791065216064,-4.829999923706055,2.0299999713897705,2.240000009536743,123
11:2:23:938,-0.014887809753417969,0.055147409439086914,0.06577730178833008,8.800802230834961,2.768495798110962,-3.273381233215332,-2.940000057220459,0.9100000262260437,2.380000114440918,123
11:2:23:978,-0.011910438537597656,-0.042023658752441406,0.021993398666381836,8.800802230834961,2.6608188152313232,-3.31166672706604,-3.2899999618530273,2.799999952316284,1.3300000429153442,123
11:2:24:19,-0.01718616485595703,-0.02787613868713379,-0.09151792526245117,8.791230201721191,2.667997360229492,-3.4480574131011963,-3.3600001335144043,3.0799999237060547,1.2599999904632568,122
11:2:24:58,0.15279197692871094,0.10403990745544434,0.13352537155151367,8.999405860900879,2.825923442840576,-3.1896328926086426,-3.569999933242798,1.2599999904632568,4.059999942779541,122
11:2:24:99,0.05714893341064453,0.1559739112854004,0.12022042274475098,8.918049812316895,2.9168508052825928,-3.1728827953338623,-6.720000267028809,-0.3499999940395355,6.579999923706055,122
11:2:24:139,0.0361480712890625,0.1305220127105713,0.10191893577575684,8.906085968017578,2.9240293502807617,-3.1657044887542725,-15.119999885559082,-2.309999942779541,11.829999923706055,122
11:2:24:178,-0.1318798065185547,-0.19037818908691406,-0.20943188667297363,8.70508861541748,2.555534601211548,-3.5294132232666016,-22.540000915527344,0.21000000834465027,13.579999923706055,122
11:2:24:217,-0.038504600524902344,-0.23461556434631348,-0.18094539642333984,8.788837432861328,2.452643394470215,-3.5461630821228027,-22.96000099182129,-0.2800000011920929,12.460000038146973,122
11:2:24:254,-0.04420280456542969,-0.3963468074798584,-0.12752819061279297,8.772088050842285,2.1918253898620605,-3.524627923965454,-17.360000610351562,3.009999990463257,6.159999847412109,122
11:2:24:299,-0.008563041687011719,-0.28453493118286133,0.01857590675354004,8.805586814880371,2.232503652572632,-3.373879909515381,-3.7100000381469727,-0.21000000834465027,2.5899999141693115,122
11:2:24:338,0.09652042388916016,-0.013231277465820312,0.15268731117248535,8.934800148010254,2.5004994869232178,-3.201596736907959,2.6600000858306885,0.2800000011920929,-0.7699999809265137,122
11:2:24:379,-0.058696746826171875,0.11192750930786133,0.03792238235473633,8.764908790588379,2.6536402702331543,-3.3068809509277344,1.0499999523162842,2.309999942779541,-0.9100000262260437,122
11:2:24:418,0.0812978744506836,0.09337067604064941,0.10307979583740234,8.925228118896484,2.65842604637146,-3.2159535884857178,-0.42000001668930054,1.399999976158142,0.6299999952316284,122
11:2:24:458,0.05355262756347656,0.0861818790435791,0.10352039337158203,8.910871505737305,2.6727826595306396,-3.1896328926086426,-5.460000038146973,3.7100000381469727,1.6800000667572021,122
11:2:24:501,0.0102996826171875,-0.021024227142333984,0.031131505966186523,8.870193481445312,2.5603203773498535,-3.2542388439178467,-4.829999923706055,2.450000047683716,2.5899999141693115,122
11:2:24:538,0.046525001525878906,-0.003419637680053711,0.04787611961364746,8.918049812316895,2.5770699977874756,-3.225525140762329,-4.480000019073486,1.8200000524520874,2.6600000858306885,122
11:2:24:580,-0.016379356384277344,0.02214956283569336,-0.013383865356445312,8.85105037689209,2.6081764698028564,-3.290131092071533,-5.179999828338623,2.0299999713897705,3.2899999618530273,122
11:2:24:618,0.06538200378417969,-0.0014226436614990234,0.035234928131103516,8.949156761169434,2.5842485427856445,-3.232703685760498,-6.579999923706055,0.9100000262260437,4.199999809265137,122
11:2:24:660,-0.08169269561767578,-0.03559470176696777,0.02627420425415039,8.781659126281738,2.541177749633789,-3.235095977783203,-7.28000020980835,2.309999942779541,2.380000114440918,122
11:2:24:699,0.003559112548828125,0.011723518371582031,0.015276432037353516,8.86780071258545,2.5914268493652344,-3.242274522781372,-6.230000019073486,2.5199999809265137,1.4700000286102295,122
11:2:24:740,-0.035437583923339844,0.11849141120910645,0.07922005653381348,8.819944381713867,2.7278177738189697,-3.1585259437561035,-7.420000076293945,6.369999885559082,-0.2800000011920929,122
11:2:24:778,0.0022783279418945312,0.016308307647705078,0.16483163833618164,8.858229637145996,2.629711866378784,-3.0317063331604004,-11.970000267028809,4.619999885559082,1.1200000047683716,122
11:2:24:820,0.0037364959716796875,-0.15540790557861328,0.16440773010253906,8.860621452331543,2.4191436767578125,-2.991028308868408,-12.25,0.7699999809265137,0.49000000953674316,122
11:2:24:859,-0.02763843536376953,0.11304140090942383,0.05495595932006836,8.82233715057373,2.715853452682495,-3.0867412090301514,-13.789999961853027,3.0799999237060547,3.569999933242798,122
11:2:24:900,-0.04891014099121094,0.12680411338806152,0.026736736297607422,8.788837432861328,2.761317014694214,-3.1082763671875,-23.030000686645508,12.670000076293945,8.050000190734863,122
11:2:24:939,-0.014242172241210938,0.1512143611907959,0.12475919723510742,8.819944381713867,2.823530912399292,-2.9790639877319336,-23.030000686645508,6.019999980926514,8.75,122
11:2:24:996,0.2872304916381836,0.19562745094299316,0.08257889747619629,9.193224906921387,2.9168508052825928,-3.0005996227264404,-23.940000534057617,12.8100004196167,-0.9100000262260437,122
11:2:25:21,0.1608715057373047,-0.059809207916259766,0.3206593990325928,9.107083320617676,2.6464619636535645,-2.682354211807251,-26.31999969482422,16.59000015258789,1.8899999856948853,121
11:2:25:62,0.08466911315917969,-0.10144662857055664,0.19335722923278809,9.052047729492188,2.579463005065918,-2.761317014694214,-16.59000015258789,14.210000038146973,0.6299999952316284,121
11:2:25:100,0.2495899200439453,0.049011945724487305,0.2886836528778076,9.279366493225098,2.7421746253967285,-2.5938196182250977,-15.539999961853027,18.760000228881836,2.380000114440918,121
11:2:25:139,-0.0032405853271484375,-0.11201691627502441,0.30368876457214355,9.025726318359375,2.5531415939331055,-2.502892255783081,-8.050000190734863,3.640000104904175,4.829999923706055,121
11:2:25:180,0.17543411254882812,0.12286925315856934,0.39800572395324707,9.248259544372559,2.8187451362609863,-2.3090739250183105,-1.8200000524520874,1.6100000143051147,0.6299999952316284,121
11:2:25:220,0.0044345855712890625,0.07149553298950195,0.27820539474487305,9.078369140625,2.785245418548584,-2.359323024749756,-7.490000247955322,4.690000057220459,3.3600001335144043,121
11:2:25:260,-0.07685089111328125,0.10505318641662598,0.13642263412475586,8.97787094116211,2.8450663089752197,-2.4670000076293945,-8.680000305175781,1.6800000667572021,4.619999885559082,121
11:2:25:299,-0.030852317810058594,0.05724287033081055,0.22016477584838867,9.016156196594238,2.8115665912628174,-2.328216552734375,-4.340000152587891,2.309999942779541,2.5899999141693115,121
11:2:25:340,-0.0017108917236328125,0.09747934341430664,0.2105884552001953,9.044869422912598,2.8761727809906006,-2.2851457595825195,-1.4700000286102295,-0.7699999809265137,2.0299999713897705,121
11:2:25:379,0.015859603881835938,0.12775397300720215,0.22972726821899414,9.066404342651367,2.9383859634399414,-2.2085752487182617,-3.0799999237060547,2.5899999141693115,1.8899999856948853,121
11:2:25:421,0.024173736572265625,0.1232602596282959,0.2163243293762207,9.080761909484863,2.964707374572754,-2.1678972244262695,-3.640000104904175,2.1700000762939453,2.309999942779541,121
11:2:25:459,0.057623863220214844,0.10435104370117188,0.07543230056762695,9.128618240356445,2.971885919570923,-2.289931058883667,-5.179999828338623,1.4700000286102295,3.2200000286102295,121
11:2:25:501,0.04035663604736328,0.12942266464233398,0.06034588813781738,9.121439933776855,3.029313325881958,-2.289931058883667,-4.690000057220459,0.6299999952316284,4.340000152587891,121
11:2:25:539,0.03802776336669922,0.09205293655395508,0.05784773826599121,9.128618240356445,3.0149567127227783,-2.2779672145843506,-8.399999618530273,0.8400000333786011,4.690000057220459,121
11:2:25:582,0.0036230087280273438,-0.027813434600830078,0.055849552154541016,9.09511947631836,2.888136863708496,-2.266003131866455,-10.569999694824219,1.6800000667572021,4.760000228881836,121
11:2:25:620,-0.0047588348388671875,-0.10073518753051758,0.006394624710083008,9.08554744720459,2.7900311946868896,-2.313859462738037,-9.9399995803833,2.1700000762939453,3.990000009536743,121
11:2:25:660,0.14359092712402344,-0.02890324592590332,-0.08676862716674805,9.269794464111328,2.854637384414673,-2.4287149906158447,-5.039999961853027,2.0299999713897705,3.569999933242798,121
11:2:25:700,-0.030611038208007812,0.03430533409118652,0.09521126747131348,9.087940216064453,2.926422357559204,-2.2229323387145996,-4.480000019073486,3.430000066757202,3.990000009536743,121
11:2:25:741,-0.0627737045288086,-0.028069496154785156,0.0474553108215332,9.040083885192871,2.857030153274536,-2.258824586868286,-5.320000171661377,3.0799999237060547,3.2200000286102295,121
11:2:25:780,-0.07319068908691406,-0.10285401344299316,0.11453461647033691,9.011369705200195,2.7565319538116455,-2.163111686706543,-6.369999885559082,3.1500000953674316,2.7300000190734863,121
11:2:25:821,0.0027036666870117188,-0.045912742614746094,0.10119891166687012,9.087940216064453,2.801995038986206,-2.1511476039886475,-3.990000009536743,1.6800000667572021,2.940000057220459,121
11:2:25:860,0.017477035522460938,0.020697832107543945,0.03501701354980469,9.107083320617676,2.8737800121307373,-2.2085752487182617,-4.059999942779541,2.450000047683716,3.569999933242798,121
11:2:25:900,-0.08556079864501953,-0.012155532836914062,0.07395577430725098,8.98265552520752,2.837887763977051,-2.1511476039886475,-5.53000020980835,1.6100000143051147,3.7100000381469727,121
11:2:25:941,0.013864517211914062,-0.013553142547607422,0.030450820922851562,9.08554744720459,2.833101987838745,-2.187039852142334,-7.769999980926514,2.1700000762939453,3.9200000762939453,121
11:2:25:980,-0.015707969665527344,-0.10464143753051758,-0.09432339668273926,9.052047729492188,2.715853452682495,-2.335394859313965,-8.329999923706055,2.799999952316284,3.3600001335144043,121
11:2:26:21,0.17311668395996094,-0.33448076248168945,-0.21711373329162598,9.284152030944824,2.4023938179016113,-2.5124638080596924,3.9200000762939453,3.7799999713897705,0.2800000011920929,121
11:2:26:60,0.10020828247070312,0.013811588287353516,0.18044686317443848,9.236295700073242,2.754138946533203,-2.069791555404663,15.470000267028809,3.7100000381469727,0.9100000262260437,121
11:2:26:101,0.013166427612304688,0.13930463790893555,0.15201449394226074,9.152545928955078,2.9144580364227295,-2.060220241546631,10.920000076293945,3.430000066757202,1.4700000286102295,121
11:2:26:140,0.029676437377929688,0.12484335899353027,0.09289789199829102,9.176474571228027,2.9312076568603516,-2.0961124897003174,6.019999980926514,5.179999828338623,2.380000114440918,121
11:2:26:181,-0.11791419982910156,-0.001580953598022461,0.03986167907714844,8.999405860900879,2.8043880462646484,-2.139183282852173,-1.9600000381469727,7.909999847412109,1.0499999523162842,121
11:2:26:221,-0.06370353698730469,-0.16014814376831055,0.05486035346984863,9.037691116333008,2.6057839393615723,-2.1104695796966553,-5.740000247955322,11.829999923706055,-3.009999990463257,121
11:2:26:261,0.06963539123535156,0.02310800552368164,0.10705900192260742,9.18843936920166,2.7948169708251953,-2.031506299972534,-13.15999984741211,25.059999465942383,-14,121
11:2:26:300,0.10547828674316406,0.08548545837402344,0.146903395652771,9.250652313232422,2.878565788269043,-1.954936146736145,-7.559999942779541,33.529998779296875,-14.5600004196167,121
11:2:26:341,-0.15489959716796875,0.02436041831970215,0.18643605709075928,8.951549530029297,2.823530912399292,-1.868794322013855,10.430000305175781,25.549999237060547,-9.800000190734863,121
11:2:26:380,-0.2406902313232422,0.05777335166931152,0.3788597583770752,8.805586814880371,2.871387243270874,-1.581655740737915,24.010000228881836,11.34000015258789,-3.1500000953674316,121
11:2:26:422,-0.11023902893066406,0.09981775283813477,0.3318016529083252,8.908478736877441,2.9383859634399414,-1.5457634925842285,28.21000099182129,4.269999980926514,0.2800000011920929,121
11:2:26:460,0.11854839324951172,0.18896722793579102,0.25969862937927246,9.166903495788574,3.074777126312256,-1.5529417991638184,29.96000099182129,7,2.5199999809265137,121
11:2:26:502,0.012525558471679688,0.18563032150268555,0.1560739278793335,9.06401252746582,3.1178479194641113,-1.6175479888916016,30.729999542236328,11.270000457763672,3.009999990463257,121
11:2:26:540,0.07319068908691406,0.20976018905639648,0.019574880599975586,9.142975807189941,3.194417953491211,-1.7491532564163208,34.439998626708984,12.390000343322754,0.9100000262260437,121
11:2:26:581,0.1848926544189453,0.2080078125,0.06543052196502686,9.300901412963867,3.2446675300598145,-1.6869399547576904,33.529998779296875,10.430000305175781,-0.21000000834465027,121
11:2:26:620,0.1326007843017578,0.2908329963684082,0.31459784507751465,9.281759262084961,3.400200843811035,-1.3591231107711792,30.520000457763672,6.230000019073486,0.07000000029802322,121
11:2:26:662,0.10608100891113281,0.3685786724090576,0.35504817962646484,9.281759262084961,3.5700912475585938,-1.2299107313156128,15.260000228881836,3.2899999618530273,2.380000114440918,121
11:2:26:701,0.13463497161865234,0.22977852821350098,0.2514960765838623,9.343972206115723,3.4887356758117676,-1.2705888748168945,-7.909999847412109,0.2800000011920929,5.670000076293945,121
11:2:26:742,0.05028057098388672,-0.15500116348266602,-0.0974273681640625,9.272188186645508,3.0652055740356445,-1.643869161605835,-20.719999313354492,0.14000000059604645,4.340000152587891,121
11:2:26:780,-0.11100196838378906,-0.35179734230041504,-0.2521393299102783,9.083154678344727,2.7804601192474365,-1.8616160154342651,-17.290000915527344,2.380000114440918,0.7699999809265137,121
11:2:26:822,-0.08688735961914062,-0.5800623893737793,-0.22851109504699707,9.08554744720459,2.407179594039917,-1.8951154947280884,-7.699999809265137,5.740000247955322,-2.7300000190734863,121
11:2:26:860,-0.013997077941894531,-0.5559344291687012,-0.10815262794494629,9.154938697814941,2.2923240661621094,-1.801795244216919,12.529999732971191,10.289999961853027,-5.460000038146973,121
11:2:26:902,0.07111549377441406,-0.17675113677978516,0.07236123085021973,9.257830619812012,2.627319574356079,-1.6031911373138428,31.149999618530273,11.970000267028809,-6.860000133514404,121
11:2:26:941,0.058806419372558594,0.11510944366455078,0.3947983980178833,9.260223388671875,2.9479575157165527,-1.1820544004440308,44.869998931884766,12.180000305175781,-7.699999809265137,121
11:2:26:982,-0.08120918273925781,0.27202773094177246,0.3273242712020874,9.099905014038086,3.1728827953338623,-1.1676974296569824,40.7400016784668,7.630000114440918,-7.769999980926514,121
11:2:27:21,-0.16259479522705078,0.3324775695800781,0.2656879425048828,8.97787094116211,3.3164520263671875,-1.1629117727279663,17.850000381469727,5.110000133514404,-1.0499999523162842,120
11:2:27:61,-0.11093330383300781,0.15686941146850586,0.28337788581848145,9.001798629760742,3.1800613403320312,-1.0743772983551025,6.369999885559082,0.14000000059604645,4.409999847412109,120
11:2:27:102,-0.05811882019042969,0.07763910293579102,-0.03172266483306885,9.040083885192871,3.1202406883239746,-1.3974084854125977,2.6600000858306885,3.2200000286102295,7.070000171661377,120
11:2:27:141,0.20044422149658203,0.24779415130615234,0.12201976776123047,9.34875774383545,3.352344274520874,-1.2131611108779907,-5.53000020980835,7.139999866485596,11.6899995803833,120
11:2:27:182,0.1469554901123047,0.04318070411682129,0.04784512519836426,9.332008361816406,3.1585259437561035,-1.275374412536621,-28.84000015258789,10.640000343322754,14.350000381469727,120
11:2:27:223,-0.15426063537597656,-0.34830713272094727,-0.1646353006362915,8.992227554321289,2.6799612045288086,-1.529013752937317,-34.86000061035156,17.219999313354492,12.25,120
11:2:27:261,0.11395931243896484,-0.24036049842834473,0.031003832817077637,9.28893756866455,2.7278177738189697,-1.325623631477356,-21.770000457763672,13.789999961853027,11.970000267028809,120
11:2:27:305,-0.0064601898193359375,-0.22865915298461914,0.03246009349822998,9.166903495788574,2.682354211807251,-1.3160523176193237,-12.319999694824219,5.670000076293945,12.600000381469727,120
11:2:27:341,-0.10853767395019531,-0.05084371566772461,0.05468177795410156,9.037691116333008,2.847458839416504,-1.2801601886749268,-8.75,1.5399999618530273,13.369999885559082,120
11:2:27:384,0.05865287780761719,-0.006218433380126953,-0.023253560066223145,9.219545364379883,2.8905296325683594,-1.3639088869094849,-10.779999732971191,0.14000000059604645,15.680000305175781,120
11:2:27:421,0.0067234039306640625,0.01799631118774414,-0.11431574821472168,9.169296264648438,2.919243574142456,-1.4835500717163086,-17.010000228881836,0.49000000953674316,18.059999465942383,120
11:2:27:463,-0.18030452728271484,-0.0640873908996582,-0.22927916049957275,8.9371919631958,2.8211379051208496,-1.65583336353302,-20.299999237060547,0.7699999809265137,19.389999389648438,120
11:2:27:501,-0.20932865142822266,-0.07998394966125488,-0.35570645332336426,8.855835914611816,2.785245418548584,-1.8711872100830078,-19.670000076293945,-2.0999999046325684,18.899999618530273,120
11:2:27:542,0.19816112518310547,0.07001113891601562,-0.5525614023208618,9.3128662109375,2.9527432918548584,-2.2061824798583984,-25.549999237060547,0.699999988079071,22.399999618530273,120
11:2:27:581,0.12407112121582031,0.03495216369628906,-0.5875327587127686,9.269794464111328,2.926422357559204,-2.3880369663238525,-45.43000030517578,-2.5899999141693115,27.860000610351562,120
11:2:27:623,0.09734344482421875,0.15621685981750488,-0.3628278970718384,9.267402648925781,3.0867412090301514,-2.2540390491485596,-54.810001373291016,-8.75,27.790000915527344,120
11:2:27:667,0.1774158477783203,0.0771169662475586,0.36632823944091797,9.391828536987305,3.0269205570220947,-1.4333008527755737,-64.4000015258789,-21.90999984741211,19.25,120
11:2:27:702,0.048134803771972656,-0.6465818881988525,0.021238088607788086,9.274580955505371,2.1415762901306152,-1.7730815410614014,-31.360000610351562,-23.799999237060547,-4.130000114440918,120
11:2:27:742,0.5055866241455078,-0.44452357292175293,0.4381272792816162,9.858428955078125,2.232503652572632,-1.246660590171814,15.260000228881836,-11.480000495910645,-22.329999923706055,120
11:2:27:781,0.41404151916503906,-0.6312720775604248,1.0683486461639404,9.870393753051758,1.887937068939209,-0.3493521213531494,31.290000915527344,9.100000381469727,-28.06999969482422,120
11:2:27:823,0.13597869873046875,-0.5318171977996826,1.059504508972168,9.626325607299805,1.8544375896453857,-0.0933200791478157,10.850000381469727,15.329999923706055,-17.5,120
11:2:27:861,-0.3142681121826172,-0.32016968727111816,0.6159783601760864,9.097511291503906,1.9860427379608154,-0.38285160064697266,3.2899999618530273,6.579999923706055,-4.480000019073486,120
11:2:27:903,-0.012132644653320312,0.11714482307434082,-0.18677890300750732,9.396614074707031,2.452643394470215,-1.2323036193847656,-1.399999976158142,1.6800000667572021,7.630000114440918,120
11:2:27:942,0.026665687561035156,0.23345685005187988,-0.6471302509307861,9.442078590393066,2.627319574356079,-1.8544375896453857,-6.789999961853027,7.699999809265137,10.149999618530273,120
11:2:27:983,0.49606895446777344,0.34947729110717773,-0.7359294891357422,10.03549861907959,2.830709218978882,-2.1272192001342773,-9.449999809265137,10.779999732971191,12.039999961853027,120
11:2:28:22,0.38154029846191406,0.32169532775878906,-0.5198303461074829,10.016355514526367,2.8833510875701904,-2.0410776138305664,-7.070000171661377,4.900000095367432,6.789999961853027,119
11:2:28:63,-0.4241008758544922,0.2956414222717285,0.1105567216873169,9.104689598083496,2.9312076568603516,-1.3830513954162598,-12.390000343322754,-5.670000076293945,-4.829999923706055,119
11:2:28:102,-0.5881338119506836,-0.05828237533569336,0.5957236886024475,8.793622970581055,2.562713146209717,-0.7489535212516785,-27.229999542236328,-10.359999656677246,-9.239999771118164,119
11:2:28:143,-0.1776256561279297,-0.3567357063293457,0.5129498839378357,9.159724235534668,2.1750757694244385,-0.7034898400306702,-44.65999984741211,-2.940000057220459,-0.7699999809265137,119
11:2:28:182,0.06081104278564453,-0.5150995254516602,0.01793694496154785,9.413363456726074,1.887937068939209,-1.1940184831619263,-40.880001068115234,5.320000171661377,7.210000038146973,119
11:2:28:223,0.1577625274658203,-0.27808141708374023,-0.16559076309204102,9.549755096435547,2.0554347038269043,-1.4189438819885254,-12.600000381469727,7.070000171661377,3.990000009536743,119
11:2:28:262,0.040068626403808594,-0.18800854682922363,-0.10375857353210449,9.442078590393066,2.0985054969787598,-1.3830513954162598,-1.5399999618530273,5.949999809265137,-5.670000076293945,119
11:2:28:303,-0.02728748321533203,-0.32269012928009033,0.05864822864532471,9.367900848388672,1.8831514120101929,-1.2059825658798218,-5.039999961853027,4.199999809265137,-8.050000190734863,119
11:2:28:342,-0.15008544921875,-0.37492191791534424,0.046918630599975586,9.207581520080566,1.7371891736984253,-1.2059825658798218,5.949999809265137,2.7300000190734863,-3.5,119
11:2:28:383,-0.11432552337646484,0.08865690231323242,0.09113407135009766,9.214759826660156,2.2229323387145996,-1.1389836072921753,28.630001068115234,0.42000001668930054,1.2599999904632568,119
11:2:28:422,0.054022789001464844,0.4174060821533203,0.03079354763031006,9.396614074707031,2.6560330390930176,-1.191625714302063,32.689998626708984,-0.2800000011920929,5.179999828338623,119
11:2:28:463,0.21167373657226562,0.5521504878997803,-0.023221492767333984,9.607183456420898,2.9288151264190674,-1.2514461278915405,19.389999389648438,-0.42000001668930054,7.349999904632568,119
11:2:28:504,0.09659671783447266,0.4015209674835205,0.004393815994262695,9.516255378723145,2.878565788269043,-1.2227323055267334,-2.6600000858306885,1.6100000143051147,7.210000038146973,119
11:2:28:542,-0.09500598907470703,0.10107707977294922,0.03031468391418457,9.300901412963867,2.603391170501709,-1.1892328262329102,-1.5399999618530273,2.240000009536743,3.2899999618530273,119
11:2:28:584,-0.04154777526855469,0.16508913040161133,0.045308589935302734,9.343972206115723,2.7086753845214844,-1.1629117727279663,5.039999961853027,1.75,1.8200000524520874,119
11:2:28:622,-0.06003761291503906,0.14164233207702637,0.08218896389007568,9.31047248840332,2.720639228820801,-1.105484127998352,0.699999988079071,2.1700000762939453,3.2200000286102295,119
11:2:28:664,-0.04037284851074219,0.019515514373779297,0.05235135555267334,9.32004451751709,2.603391170501709,-1.1222338676452637,-0.7699999809265137,1.9600000381469727,3.2200000286102295,119
11:2:28:702,-0.043784141540527344,0.03858304023742676,0.07825207710266113,9.305686950683594,2.6321046352386475,-1.0767701864242554,-0.21000000834465027,2.240000009536743,2.870000123977661,119
11:2:28:744,-0.01779937744140625,-0.03230404853820801,0.1104581356048584,9.327221870422363,2.5531415939331055,-1.0169496536254883,-3.3600001335144043,2.0999999046325684,3.3600001335144043,119
11:2:28:782,-0.018067359924316406,0.03541302680969238,0.05965268611907959,9.322437286376953,2.629711866378784,-1.0528419017791748,-6.019999980926514,0.42000001668930054,5.389999866485596,119
11:2:28:824,0.020002365112304688,-0.011868715286254883,-0.07861888408660889,9.365508079528809,2.579463005065918,-1.210768222808838,-6.789999961853027,2.0299999713897705,6.300000190734863,119
11:2:28:860,0.06768608093261719,0.06516075134277344,-0.05332386493682861,9.430113792419434,2.6727826595306396,-1.1988041400909424,-6.929999828338623,2.0999999046325684,4.760000228881836,119
11:2:28:898,-0.02624988555908203,-0.03592705726623535,-0.06754434108734131,9.329615592956543,2.562713146209717,-1.2299107313156128,-10.010000228881836,2.5199999809265137,3.9200000762939453,119
11:2:28:936,-0.0018568038940429688,-0.11679744720458984,-0.0004363059997558594,9.353544235229492,2.452643394470215,-1.1629117727279663,-9.239999771118164,1.6800000667572021,3.569999933242798,119
11:2:28:977,-0.0799703598022461,-0.10109519958496094,0.0015652179718017578,9.255437850952148,2.4430718421936035,-1.160519003868103,-7.909999847412109,2.240000009536743,3.2899999618530273,119
11:2:29:19,-0.0008058547973632812,-0.031105518341064453,-0.04468989372253418,9.33440113067627,2.5052852630615234,-1.2179466485977173,-4.340000152587891,1.399999976158142,2.450000047683716,119
11:2:29:58,0.031897544860839844,-0.007656097412109375,-0.018523693084716797,9.375079154968262,2.526820659637451,-1.196411371231079,-1.0499999523162842,2.0999999046325684,1.1200000047683716,119
11:2:29:96,0.017861366271972656,0.04747438430786133,0.013894915580749512,9.365508079528809,2.5938196182250977,-1.160519003868103,0.14000000059604645,2.799999952316284,0.49000000953674316,119
11:2:29:136,-0.039310455322265625,0.07817888259887695,0.06280100345611572,9.298508644104004,2.644068956375122,-1.0959126949310303,0.42000001668930054,2.7300000190734863,0.3499999940395355,119
11:2:29:174,0.02980804443359375,0.07020020484924316,0.0732119083404541,9.375079154968262,2.6536402702331543,-1.0671988725662231,-1.3300000429153442,2.309999942779541,1.1200000047683716,119
11:2:29:214,-0.0010395050048828125,-0.0012674331665039062,0.09876894950866699,9.343972206115723,2.5818557739257812,-1.0169496536254883,-3.430000066757202,2.870000123977661,1.399999976158142,119
11:2:29:254,-0.023801803588867188,-0.018242359161376953,0.13644295930862427,9.315258979797363,2.5603203773498535,-0.9451649785041809,-8.399999618530273,0.42000001668930054,3.0799999237060547,119
11:2:29:294,-0.0152130126953125,-0.010765552520751953,0.08426898717880249,9.32004451751709,2.565105676651001,-0.9762716889381409,-9.3100004196167,0.42000001668930054,3.2200000286102295,119
11:2:29:339,0.07397079467773438,-0.02201223373413086,0.017644524574279785,9.42772102355957,2.548356056213379,-1.038485050201416,-6.929999828338623,1.190000057220459,2.6600000858306885,119
11:2:29:380,0.10129070281982422,0.022589683532714844,-0.041397809982299805,9.480363845825195,2.5986053943634033,-1.1078768968582153,-6.300000190734863,1.190000057220459,2.0999999046325684,119
11:2:29:419,0.042746543884277344,-0.012556314468383789,0.05876612663269043,9.432506561279297,2.5603203773498535,-0.9930213689804077,-8.399999618530273,0.49000000953674316,2.5199999809265137,119
11:2:29:460,0.03228282928466797,-0.04833030700683594,0.03169882297515869,9.430113792419434,2.5124638080596924,-1.0121639966964722,-12.390000343322754,0.49000000953674316,3.3600001335144043,119
11:2:29:499,-0.050744056701660156,-0.08269238471984863,0.03110194206237793,9.33440113067627,2.4574286937713623,-1.0049854516983032,-12.600000381469727,0.42000001668930054,3.1500000953674316,119
11:2:29:540,-0.02528095245361328,-0.06806802749633789,-0.0689171552658081,9.353544235229492,2.455036163330078,-1.1222338676452637,-12.25,0.14000000059604645,3.569999933242798,119
11:2:29:579,-0.0029964447021484375,-0.05636858940124512,-0.026419878005981445,9.375079154968262,2.452643394470215,-1.0863415002822876,-11.760000228881836,-0.21000000834465027,3.8499999046325684,119
11:2:29:620,-0.01771068572998047,-0.024038314819335938,-0.0019932985305786133,9.355937004089355,2.47896409034729,-1.062413215637207,-11.34000015258789,0.7699999809265137,3.640000104904175,119
11:2:29:659,0.026030540466308594,-0.02688765525817871,0.021376371383666992,9.4061861038208,2.469392776489258,-1.0336993932724,-10.5,0.699999988079071,4.059999942779541,119
11:2:29:702,0.04570960998535156,-0.00811004638671875,0.011358380317687988,9.437292098999023,2.486142873764038,-1.0408778190612793,-8.819999694824219,1.8200000524520874,3.0799999237060547,119
11:2:29:737,0.0021114349365234375,0.010740041732788086,-0.013884305953979492,9.394222259521484,2.5076780319213867,-1.0695916414260864,-8.609999656677246,1.1200000047683716,3.430000066757202,119
11:2:29:784,-0.051911354064941406,-0.0890350341796875,0.05589151382446289,9.327221870422363,2.3856441974639893,-0.9858429431915283,-8.609999656677246,0.9800000190734863,2.6600000858306885,119
11:2:29:819,0.01398468017578125,-0.006143331527709961,0.04088467359542847,9.396614074707031,2.4670000076293945,-0.9906285405158997,-6.579999923706055,0.8400000333786011,2.5199999809265137,119
11:2:29:865,-0.03666877746582031,-0.05277109146118164,0.0748213529586792,9.336793899536133,2.407179594039917,-0.9379864931106567,-6.579999923706055,0.8400000333786011,2.7300000190734863,119
11:2:29:904,-0.05422019958496094,0.01712512969970703,-0.0090562105178833,9.305686950683594,2.4813570976257324,-1.0241280794143677,-7.420000076293945,0.8400000333786011,2.799999952316284,119
11:2:29:945,0.0044803619384765625,0.0003001689910888672,0.032954514026641846,9.365508079528809,2.4646072387695312,-0.973878800868988,-6.929999828338623,1.190000057220459,2.5899999141693115,119
11:2:29:983,-0.02130126953125,0.011725664138793945,-0.029149889945983887,9.33440113067627,2.47896409034729,-1.0432707071304321,-6.720000267028809,0.9800000190734863,2.870000123977661,119
11:2:30:25,0.05570030212402344,0.018951892852783203,-0.013748526573181152,9.425328254699707,2.4909284114837646,-1.031306505203247,-7.28000020980835,0.9100000262260437,3.3600001335144043,120
11:2:30:63,0.02924633026123047,-0.013552188873291016,0.078971266746521,9.4061861038208,2.455036163330078,-0.9188438653945923,-7.699999809265137,1.1200000047683716,3.430000066757202,120
11:2:30:105,0.027225494384765625,-0.029984474182128906,0.08997660875320435,9.410971641540527,2.431107759475708,-0.8853443264961243,-9.029999732971191,0.6299999952316284,3.7100000381469727,120
11:2:30:144,0.06006431579589844,0.012383460998535156,0.08346676826477051,9.458827018737793,2.476571559906006,-0.8709874749183655,-8.050000190734863,0.7699999809265137,3.990000009536743,120
11:2:30:185,-0.03234672546386719,-0.03794980049133301,-0.06148183345794678,9.358329772949219,2.416750907897949,-1.031306505203247,-7.559999942779541,1.8899999856948853,3.5,120
11:2:30:225,0.0028362274169921875,0.0002684593200683594,-0.041528522968292236,9.394222259521484,2.455036163330078,-1.0217353105545044,-6.440000057220459,1.8200000524520874,3.9200000762939453,120
11:2:30:265,0.03481101989746094,-0.028499126434326172,-0.004508912563323975,9.434900283813477,2.4191436767578125,-0.9858429431915283,-5.389999866485596,1.75,3.640000104904175,120
11:2:30:304,0.025934219360351562,-0.0515131950378418,0.049992144107818604,9.432506561279297,2.383251428604126,-0.9188438653945923,-4.550000190734863,1.6100000143051147,3.5,120
11:2:30:344,-0.04242229461669922,-0.04503917694091797,0.14719218015670776,9.353544235229492,2.3784656524658203,-0.784845769405365,-4.829999923706055,1.8200000524520874,3.1500000953674316,120
11:2:30:385,0.010089874267578125,0.004168033599853516,0.12349647283554077,9.408578872680664,2.4287149906158447,-0.7776673436164856,-5.110000133514404,1.6100000143051147,3.430000066757202,120
11:2:30:424,0.017642974853515625,-0.04835057258605957,0.05476921796798706,9.42054271697998,2.3641088008880615,-0.8327022790908813,-6.159999847412109,1.1200000047683716,3.430000066757202,120
11:2:30:465,-0.0011997222900390625,-0.034852027893066406,0.01893007755279541,9.401400566101074,2.368894338607788,-0.8638089299201965,-4.690000057220459,1.4700000286102295,2.799999952316284,120
11:2:30:505,-0.035416603088378906,0.019974946975708008,0.055343449115753174,9.358329772949219,2.4287149906158447,-0.8135597109794617,-3.7100000381469727,1.0499999523162842,3.2899999618530273,120
11:2:30:546,-0.07810401916503906,-0.006991147994995117,0.07490289211273193,9.29611587524414,2.400001049041748,-0.7752745151519775,-1.9600000381469727,0.5600000023841858,3.2200000286102295,120
11:2:30:584,0.04854393005371094,0.07863450050354004,0.046522438526153564,9.434900283813477,2.5052852630615234,-0.7920243144035339,-2.240000009536743,0.8400000333786011,3.7100000381469727,120
11:2:30:626,0.21303272247314453,0.10885000228881836,-0.050837814807891846,9.652647018432617,2.562713146209717,-0.9020940661430359,-4.269999980926514,1.2599999904632568,5.53000020980835,120
11:2:30:665,0.11874103546142578,0.035395145416259766,0.026328742504119873,9.588040351867676,2.4981069564819336,-0.818345308303833,-10.640000343322754,0.7699999809265137,6.929999828338623,120
11:2:30:706,-0.01986217498779297,-0.11908197402954102,0.1397470235824585,9.44447135925293,2.313859462738037,-0.6699903011322021,-18.270000457763672,-1.75,7.559999942779541,120
11:2:30:744,-0.04460334777832031,-0.19672131538391113,0.07734096050262451,9.408578872680664,2.187039852142334,-0.7130610942840576,-19.950000762939453,-2.940000057220459,8.260000228881836,120
11:2:30:786,-0.1179962158203125,-0.009979009628295898,-0.05681133270263672,9.305686950683594,2.3712873458862305,-0.861416220664978,-14.90999984741211,-2.380000114440918,5.460000038146973,120
11:2:30:825,-0.1862812042236328,0.007330656051635742,-0.19858962297439575,9.190832138061523,2.390429735183716,-1.0528419017791748,-5.880000114440918,0.14000000059604645,0.3499999940395355,120
11:2:30:866,0.073028564453125,0.030749797821044922,-0.42686790227890015,9.468399047851562,2.421536445617676,-1.3878371715545654,1.3300000429153442,4.199999809265137,-3.2899999618530273,120
11:2:30:905,0.5695295333862305,0.11074137687683105,-0.5501484870910645,10.107282638549805,2.5292134284973145,-1.648654818534851,10.010000228881836,9.800000190734863,-0.49000000953674316,120
11:2:30:946,-0.6374177932739258,0.04839372634887695,-0.0017535686492919922,8.740981101989746,2.47896409034729,-1.1006983518600464,0.49000000953674316,0.49000000953674316,-4.130000114440918,120
11:2:30:985,-0.47739219665527344,-0.33647966384887695,0.5652174949645996,8.781659126281738,2.0099709033966064,-0.3924228847026825,-13.369999885559082,-4.409999847412109,-3.3600001335144043,120
11:2:31:25,0.062193870544433594,-0.41275298595428467,0.565115213394165,9.336793899536133,1.8305093050003052,-0.2512463629245758,-13.859999656677246,-3.9200000762939453,8.609999656677246,121
11:2:31:66,0.38283634185791016,0.08327722549438477,-0.14324212074279785,9.753145217895508,2.3473589420318604,-0.9954141974449158,1.0499999523162842,-0.5600000023841858,17.219999313354492,121
11:2:31:105,0.40772438049316406,0.4628734588623047,-0.5051023960113525,9.879963874816895,2.8426735401153564,-1.4835500717163086,2.0299999713897705,3.7100000381469727,11.970000267028809,121
11:2:31:146,-0.039443016052246094,0.17504429817199707,-0.22988438606262207,9.422935485839844,2.5986053943634033,-1.2658032178878784,-0.42000001668930054,1.6100000143051147,-1.2599999904632568,121
11:2:31:185,-0.11769580841064453,-0.05521893501281738,0.1070597767829895,9.315258979797363,2.3545374870300293,-0.9020940661430359,9.65999984741211,4.550000190734863,-7.420000076293945,121
11:2:31:226,-0.19561195373535156,0.0017669200897216797,0.31344449520111084,9.18843936920166,2.4119651317596436,-0.6173481941223145,3.1500000953674316,3.0799999237060547,0.6299999952316284,121
11:2:31:265,-0.1622323989868164,0.09138369560241699,0.31966888904571533,9.18126106262207,2.524427890777588,-0.5312066078186035,0.5600000023841858,0.07000000029802322,6.090000152587891,121
11:2:31:306,0.1898946762084961,0.24730443954467773,0.14087963104248047,9.580862045288086,2.7421746253967285,-0.6747759580612183,-9.730000495910645,-1.190000057220459,7.840000152587891,121
11:2:31:345,0.2284860610961914,0.08681678771972656,0.0016767382621765137,9.67657470703125,2.603391170501709,-0.8135597109794617,-15.399999618530273,1.399999976158142,4.760000228881836,121
11:2:31:383,0.09664726257324219,-0.12005829811096191,-0.03120100498199463,9.568897247314453,2.366501569747925,-0.8542376756668091,-15.260000228881836,4.900000095367432,0.49000000953674316,121
11:2:31:426,-0.1428213119506836,-0.2970438003540039,-0.1627873182296753,9.293723106384277,2.115255117416382,-1.026520848274231,-9.9399995803833,5.880000114440918,0.49000000953674316,121
11:2:31:465,-0.08171463012695312,-0.19360709190368652,-0.1225728988647461,9.33440113067627,2.170289993286133,-1.0169496536254883,-5.670000076293945,3.990000009536743,2.240000009536743,121
11:2:31:506,-0.023258209228515625,-0.08597230911254883,0.04933959245681763,9.387042999267578,2.2564315795898438,-0.8327022790908813,-2.5899999141693115,3.009999990463257,3.3600001335144043,121
11:2:31:545,0.015850067138671875,-0.005607128143310547,0.22132623195648193,9.430113792419434,2.335394859313965,-0.605384111404419,-1.9600000381469727,2.5199999809265137,2.1700000762939453,121
