time,ax,ay,az,ax_g,ay_g,az_g,rot_x,rot_y,rot_,heart
11:10:13:115,,,,1.514656662940979,0.7226324081420898,8.839086532592773,48.15999984741211,-20.860000610351562,25.549999237060547,100
11:10:13:143,0.969380259513855,0.462484747171402,5.657015323638916,1.514656662940979,0.7226324081420898,8.839086532592773,-7.559999942779541,0.49000000953674316,6.369999885559082,100
11:10:13:180,0.8807885050773621,0.4733577370643616,4.7706379890441895,1.6462620496749878,0.851844847202301,9.145368576049805,-8.819999694824219,1.399999976158142,2.5899999141693115,100
11:10:13:221,0.6797453165054321,0.3346582353115082,3.868195056915283,1.6151552200317383,0.7968099117279053,9.20997428894043,-5.670000076293945,0.9800000190734863,0.49000000953674316,100
11:10:13:265,0.360027551651001,0.0935291051864624,3.230468273162842,1.3854442834854126,0.5790630578994751,9.379864692687988,-6.650000095367432,0.9100000262260437,0.3499999940395355,100
11:10:13:305,0.3990490436553955,-0.04003217816352844,2.6590304374694824,1.5242280960083008,0.43549373745918274,9.473184585571289,-1.9600000381469727,-0.7699999809265137,1.8200000524520874,100
11:10:13:344,0.27903974056243896,0.05220159888267517,2.173166275024414,1.4739787578582764,0.5407779216766357,9.530611991882324,-3.430000066757202,-0.8400000333786011,1.9600000381469727,100
11:10:13:388,0.2921450138092041,-0.019494980573654175,1.7653326988220215,1.5601203441619873,0.46420758962631226,9.564111709594727,-3.2899999618530273,-0.699999988079071,0.7699999809265137,100
11:10:13:428,0.19160246849060059,0.0571458637714386,1.4562950134277344,1.5074783563613892,0.5551348924636841,9.619147300720215,-7.070000171661377,-0.07000000029802322,0.9800000190734863,100
11:10:13:473,0.2489948272705078,-0.0212823748588562,1.1037797927856445,1.6271194219589233,0.4713860750198364,9.542576789855957,-4.619999885559082,-0.07000000029802322,-0.3499999940395355,100
11:10:13:507,0.16665339469909668,0.032744765281677246,0.9615077972412109,1.5864413976669312,0.5335994362831116,9.640682220458984,-7.139999866485596,1.3300000429153442,-0.21000000834465027,100
11:10:13:546,0.17926490306854248,-0.1709727644920349,0.5930948257446289,1.643869161605835,0.2871387302875519,9.42054271697998,-3.0799999237060547,1.5399999618530273,1.75,100
11:10:13:593,0.026642203330993652,-0.016179978847503662,0.4783039093017578,1.497907042503357,0.4378865361213684,9.425328254699707,-3.990000009536743,0.9100000262260437,2.870000123977661,100
11:10:13:625,0.1399977207183838,0.07319760322570801,0.4132709503173828,1.6462620496749878,0.5455635190010071,9.463613510131836,-3.2899999618530273,2.380000114440918,2.799999952316284,100
11:10:13:676,0.07562720775604248,-0.014183670282363892,0.2999887466430664,1.6007983684539795,0.4546363055706024,9.425328254699707,-4.269999980926514,1.5399999618530273,3.009999990463257,100
11:10:13:715,0.0432734489440918,0.038423776626586914,0.2533912658691406,1.5792629718780518,0.5168496966362,9.442078590393066,-3.430000066757202,1.6100000143051147,2.450000047683716,100
11:10:13:753,0.01739048957824707,-0.007546126842498779,0.27162647247314453,1.557727575302124,0.46899324655532837,9.528220176696777,-4.199999809265137,0.8400000333786011,2.799999952316284,100
11:10:13:789,-0.06265795230865479,0.022676944732666016,0.1962442398071289,1.4620146751403809,0.5048855543136597,9.501898765563965,-3.8499999046325684,2.309999942779541,2.0999999046325684,100
11:10:13:831,0.037929415702819824,-0.004829525947570801,0.12445259094238281,1.5720844268798828,0.47617170214653015,9.461220741271973,-4.269999980926514,1.75,2.940000057220459,100
11:10:13:878,0.06862866878509521,0.009536206722259521,0.12444782257080078,1.6199408769607544,0.49292147159576416,9.492327690124512,-2.0999999046325684,1.9600000381469727,2.240000009536743,100
11:10:13:917,0.0778740644454956,0.0899420976638794,0.06510162353515625,1.648654818534851,0.5958128571510315,9.449256896972656,-4.130000114440918,2.450000047683716,2.1700000762939453,100
11:10:13:953,-0.008528351783752441,-0.0046166181564331055,0.07313728332519531,1.5601203441619873,0.5000999569892883,9.475577354431152,-3.2899999618530273,2.1700000762939453,2.450000047683716,100
11:10:13:989,0.03720521926879883,0.032677531242370605,-0.012317657470703125,1.6151552200317383,0.5455635190010071,9.387042999267578,-6.019999980926514,2.940000057220459,2.380000114440918,100
11:10:14:33,-0.07934844493865967,0.07974129915237427,0.0054607391357421875,1.4787644147872925,0.6125625967979431,9.4061861038208,-3.0799999237060547,0.49000000953674316,1.8899999856948853,99
11:10:14:71,0.07626211643218994,-0.1276327669620514,-0.05114555358886719,1.6534404754638672,0.3732803165912628,9.336793899536133,-5.599999904632568,0.42000001668930054,2.0999999046325684,99
11:10:14:112,-0.028960466384887695,0.007006525993347168,0.08925247192382812,1.5409778356552124,0.5096712112426758,9.499505043029785,-2.940000057220459,-0.9100000262260437,1.4700000286102295,99
11:10:14:150,0.07063019275665283,-0.0039660632610321045,-0.030054092407226562,1.6582260131835938,0.4977070987224579,9.372685432434082,-3.640000104904175,0.7699999809265137,2.0299999713897705,99
11:10:14:191,-0.09663653373718262,0.01596975326538086,0.1137838363647461,1.4668002128601074,0.5216353535652161,9.54496955871582,-7.070000171661377,-0.5600000023841858,1.9600000381469727,99
11:10:14:230,0.11028826236724854,-0.05996599793434143,0.10634040832519531,1.7012970447540283,0.430708110332489,9.564111709594727,-3.430000066757202,-0.7699999809265137,1.8200000524520874,99
11:10:14:272,0.032716989517211914,-0.009687691926956177,0.0755014419555664,1.6319050788879395,0.4785645008087158,9.55214786529541,-4.550000190734863,0.21000000834465027,2.1700000762939453,99
11:10:14:310,0.07020151615142822,0.06307739019393921,0.056572914123535156,1.6869399547576904,0.5670989155769348,9.547362327575684,-5.320000171661377,0.8400000333786011,2.5199999809265137,99
11:10:14:351,0.033190011978149414,-0.10842147469520569,-0.05045509338378906,1.6582260131835938,0.3684946894645691,9.42772102355957,-3.2899999618530273,1.0499999523162842,1.9600000381469727,99
11:10:14:390,0.02655196189880371,-0.04270926117897034,0.024721145629882812,1.6582260131835938,0.42352959513664246,9.509077072143555,-4.130000114440918,1.6800000667572021,1.8899999856948853,99
11:10:14:432,-0.08595681190490723,0.021346092224121094,-0.14676380157470703,1.5242280960083008,0.49292147159576416,9.300901412963867,-4.409999847412109,1.5399999618530273,3.430000066757202,99
11:10:14:471,0.0862894058227539,-0.021208345890045166,-0.03509807586669922,1.7180466651916504,0.4450649619102478,9.403792381286621,-2.799999952316284,-0.07000000029802322,4.130000114440918,99
11:10:14:511,0.1724013090133667,0.02514702081680298,-0.11039161682128906,1.8472589254379272,0.4977070987224579,9.300901412963867,-1.6800000667572021,0.699999988079071,3.8499999046325684,99
11:10:14:550,0.27000486850738525,0.04500296711921692,0.17011165618896484,2.0123636722564697,0.5288137793540955,9.623932838439941,2.5199999809265137,2.309999942779541,6.440000057220459,99
11:10:14:591,0.5107996463775635,0.34802645444869995,0.5112829208374023,2.3808584213256836,0.9188438653945923,10.092925071716309,6.929999828338623,5.740000247955322,7.909999847412109,99
11:10:14:631,0.8316910266876221,0.7397573590278625,0.6923360824584961,2.909672498703003,1.495514154434204,10.447062492370605,16.799999237060547,20.440000534057617,5.039999961853027,99
11:10:14:672,1.2224018573760986,1.045485019683838,0.8639802932739258,3.6059837341308594,2.062613010406494,10.834701538085938,67.62000274658203,29.329999923706055,-12.319999694824219,99
11:10:14:711,0.4821286201477051,2.503706932067871,0.23558998107910156,2.9862425327301025,4.146761417388916,10.26520824432373,85.26000213623047,46.20000076293945,-43.470001220703125,99
11:10:14:752,-0.48145604133605957,2.4872729778289795,-0.9064836502075195,1.9022939205169678,4.752145767211914,8.896513938903809,6.650000095367432,49.84000015258789,-66.56999969482422,99
11:10:14:790,-0.9422138929367065,1.5610246658325195,-1.4392051696777344,1.2059825658798218,4.216153621673584,8.00399112701416,-1.190000057220459,35.560001373291016,-83.2300033569336,99
11:10:14:832,-2.2354068756103516,-0.18495988845825195,-1.3983030319213867,-0.6460621356964111,2.423929214477539,7.695317268371582,-15.190000534057617,37.72999954223633,-90.44000244140625,99
11:10:14:871,-1.939551830291748,-0.7069312334060669,-1.5723209381103516,-0.8350951075553894,1.7252250909805298,7.128218650817871,10.359999656677246,8.329999923706055,-93.23999786376953,99
11:10:14:911,-1.9555498361587524,-0.7397423982620239,-1.2176570892333984,-1.3399806022644043,1.5074783563613892,7.178467750549316,27.790000915527344,-2.799999952316284,-91,99
11:10:14:950,-1.4648984670639038,-0.9038181304931641,0.11891651153564453,-1.215553879737854,1.117448091506958,8.544770240783691,54.040000915527344,-23.8700008392334,-79.87000274658203,99
11:10:14:992,-0.6952685117721558,0.017763614654541016,1.2743158340454102,-0.6197410225868225,2.043470621109009,10.01874828338623,49.77000045776367,-27.510000228881836,-65.87000274658203,99
11:10:15:31,-0.6270424127578735,-1.1688005924224854,1.6951847076416016,-0.7082754969596863,0.5647061467170715,10.86341381072998,8.1899995803833,-15.470000267028809,-48.29999923706055,99
11:10:15:74,-0.3389219641685486,-1.5016608238220215,1.1896076202392578,-0.5048855543136597,-0.14356936514377594,10.65523910522461,15.190000534057617,-10.079999923706055,-27.229999542236328,99
11:10:15:111,0.4543662369251251,-0.4260541796684265,0.5879764556884766,0.4019941985607147,0.8255237936973572,10.200602531433105,32.34000015258789,-0.42000001668930054,-29.190000534057617,99
11:10:15:152,1.6881595849990845,0.9397953748703003,-0.012011528015136719,2.0578274726867676,2.4263222217559814,9.597611427307129,-39.54999923706055,-41.02000045776367,-11.899999618530273,99
11:10:15:191,-1.5438306331634521,1.5003111362457275,-0.1761493682861328,-1.5601203441619873,3.3619158267974854,9.389435768127441,-6.090000152587891,11.40999984741211,69.72000122070312,99
11:10:15:233,0.25039976835250854,1.6883845329284668,-0.2615184783935547,0.2967100143432617,3.972085475921631,9.238687515258789,-5.039999961853027,-16.450000762939453,35.13999938964844,99
11:10:15:272,0.028036583214998245,1.3526217937469482,-0.8906898498535156,0.0813559740781784,3.974478244781494,8.38684368133545,15.119999885559082,38.36000061035156,0.9800000190734863,99
11:10:15:313,-0.6552180647850037,0.6858460903167725,-0.8905782699584961,-0.7657032012939453,3.4791641235351562,8.164310455322266,8.680000305175781,75.94999694824219,-12.109999656677246,99
11:10:15:351,-0.0896378755569458,0.6501326560974121,0.0608978271484375,-0.2225324809551239,3.6059837341308594,9.131011009216309,6.090000152587891,155.61000061035156,1.6100000143051147,99
11:10:15:392,-1.6471445560455322,-0.5442214012145996,-1.1151504516601562,-2.1918253898620605,2.2755744457244873,7.676175117492676,-7.349999904632568,25.1299991607666,21.90999984741211,99
11:10:15:431,-2.6902384757995605,-0.10995340347290039,-0.5035266876220703,-3.9074790477752686,2.682354211807251,8.161917686462402,1.6800000667572021,9.3100004196167,34.09000015258789,99
11:10:15:472,-2.3627591133117676,0.7064542770385742,0.2327127456665039,-4.170689582824707,3.675375461578369,8.956335067749023,7.28000020980835,5.880000114440918,60.970001220703125,99
11:10:15:512,-0.814394474029541,0.14211273193359375,-0.4168214797973633,-2.825923442840576,3.146562099456787,8.202595710754395,12.529999732971191,-7.699999809265137,9.3100004196167,99
11:10:15:552,0.01273190975189209,-0.5199294090270996,-0.5708250999450684,-1.9956141710281372,2.3545374870300293,7.905886173248291,1.6800000667572021,-28.559999465942383,19.950000762939453,99
11:10:15:592,-0.43392229080200195,-0.3814868927001953,-0.3360614776611328,-2.550748825073242,2.3976082801818848,8.056633949279785,-37.029998779296875,-27.229999542236328,5.809999942779541,99
11:10:15:632,3.5636913776397705,-3.616856098175049,-0.6268157958984375,2.337787628173828,-1.741974949836731,7.609175682067871,28.979999542236328,-60.40999984741211,63,99
11:10:15:674,0.898409903049469,1.9534165859222412,0.5533046722412109,-0.10289137810468674,4.316651821136475,8.927621841430664,78.19000244140625,-24.149999618530273,86.7300033569336,99
11:10:15:711,1.2949196100234985,2.424149513244629,1.4036006927490234,0.6173481941223145,5.3934221267700195,10.12881851196289,-38.56999969482422,-11.270000457763672,104.6500015258789,99
11:10:15:753,0.39083075523376465,0.18585920333862305,-0.04481697082519531,-0.18903298676013947,3.201596736907959,8.669197082519531,-78.68000030517578,-1.6800000667572021,126.06999969482422,99
11:10:15:791,0.5959748029708862,-0.5615024566650391,-0.5833320617675781,0.16510476171970367,2.313859462738037,7.984848976135254,-59.849998474121094,-13.300000190734863,146.3699951171875,99
11:10:15:833,1.2329118251800537,-1.3335890769958496,-0.7672042846679688,1.1102697849273682,1.2083754539489746,7.609175682067871,1.190000057220459,-22.889999389648438,138.52999877929688,99
11:10:15:873,1.8075460195541382,-0.2571399211883545,-1.9058876037597656,2.1367905139923096,2.2205395698547363,5.994020462036133,74.2699966430664,-46.689998626708984,139.3699951171875,99
11:10:15:911,3.5172643661499023,-0.8833595514297485,-3.7663064002990723,4.72582483291626,1.373480200767517,3.1920251846313477,122.56999969482422,-77.69999694824219,150.9199981689453,99
11:10:15:952,6.471958637237549,0.20641350746154785,-4.297512054443359,9.298508644104004,2.5148565769195557,1.5864413976669312,247.3800048828125,-114.87000274658203,146.02000427246094,99
11:10:15:992,7.744587421417236,1.032289981842041,-4.209455966949463,12.507284164428711,3.5988054275512695,0.6221339106559753,404.80999755859375,-136.5,164.7100067138672,99
11:10:16:67,6.618720531463623,-0.3820650577545166,-6.215980529785156,13.036097526550293,2.0889341831207275,-2.9383859634399414,502.32000732421875,-187.8800048828125,96.66999816894531,97
11:10:16:90,5.760141372680664,4.233054161071777,-2.0745978355407715,13.6175537109375,7.762316703796387,0.6843472719192505,455.4200134277344,-80.5,85.47000122070312,97
11:10:16:105,5.555670738220215,-0.27170372009277344,-6.117985248565674,14.802000999450684,3.1896328926086426,-4.88853645324707,182.77000427246094,-109.12999725341797,148.19000244140625,97
11:10:16:149,2.2680253982543945,2.70188045501709,-2.8097612857818604,12.081361770629883,6.838686943054199,-2.282752752304077,104.93000030517578,68.11000061035156,124.31999969482422,97
11:10:16:192,0.7500925064086914,-12.12077522277832,-10.540375709533691,10.750951766967773,-11.014162063598633,-12.64846134185791,694.4000244140625,183.75,127.61000061035156,97
11:10:16:234,-0.5235958099365234,13.299362182617188,-7.287572860717773,9.346364974975586,17.730815887451172,-11.217552185058594,43.119998931884766,94.08000183105469,177.1699981689453,97
11:10:16:273,-2.051738739013672,13.87649917602539,3.1133551597595215,7.3052873611450195,21.77707862854004,-0.038285162299871445,-609.5599975585938,37.939998626708984,293.92999267578125,97
11:10:16:312,-5.1789398193359375,3.9342174530029297,-2.038450241088867,2.8833510875701904,12.818350791931152,-5.699703216552734,-1227.6600341796875,-122.63999938964844,249.47999572753906,97
11:10:16:353,4.842375755310059,-10.916680335998535,-0.07255434989929199,14.115260124206543,-4.761716842651367,-3.751945972442627,-1088.2900390625,-175.55999755859375,258.92999267578125,97
11:10:16:392,3.236453056335449,-19.6427001953125,-7.4202799797058105,13.318450927734375,-18.398412704467773,-12.954741477966309,455.9100036621094,-31.290000915527344,29.540000915527344,97
11:10:16:435,-0.9215869903564453,8.987425804138184,-7.316404342651367,8.930014610290527,12.478569984436035,-14.679966926574707,1225.489990234375,54.7400016784668,-141.9600067138672,97
11:10:16:473,0.2466592788696289,8.325095176696777,-1.6953544616699219,10.15992546081543,13.897513389587402,-9.482755661010742,737.239990234375,137.33999633789062,-185.9199981689453,97
11:10:16:516,2.031186103820801,-2.3158798217773438,3.7643563747406006,12.452248573303223,2.6775684356689453,-3.081955671310425,404.6700134277344,69.93000030517578,-172.1999969482422,97
11:10:16:552,-0.5113630294799805,-6.450751304626465,3.916929244995117,9.781858444213867,-3.06999135017395,-1.950150489807129,345.0299987792969,-13.720000267028809,-153.9300079345703,97
11:10:16:595,-1.442789077758789,0.9458823204040527,6.598350524902344,8.489734649658203,4.563112735748291,2.3808584213256836,235.41000366210938,-73.56999969482422,-38.849998474121094,97
11:10:16:632,-1.0489473342895508,4.1238861083984375,4.447892665863037,8.621339797973633,8.772088050842285,1.3423734903335571,-31.71000099182129,-95.76000213623047,11.480000495910645,97
11:10:16:676,0.5295372009277344,2.6635751724243164,1.8259105682373047,10.332208633422852,7.977671146392822,-0.8231310248374939,-124.87999725341797,-95.62000274658203,-17.010000228881836,97
11:10:16:713,1.1855039596557617,3.007589340209961,1.1965608596801758,11.284551620483398,9.073582649230957,-1.1533405780792236,-173.1800079345703,-51.59000015258789,-14.5600004196167,97
11:10:16:754,-0.5562038421630859,0.5128707885742188,0.14943170547485352,9.403792381286621,6.7070817947387695,-2.163111686706543,-299.6700134277344,-56.349998474121094,-33.459999084472656,97
11:10:16:793,0.4394254684448242,0.5768370628356934,0.19037294387817383,10.509278297424316,6.915257453918457,-2.0745770931243896,-201.25,-69.58000183105469,-68.80999755859375,97
11:10:16:833,-0.9463272094726562,-0.1893777847290039,-0.5502345561981201,8.886943817138672,6.10169792175293,-2.9527432918548584,-263.1300048828125,-38.849998474121094,-55.09000015258789,97
11:10:16:875,-1.9190163612365723,-1.793935775756836,1.0471911430358887,7.434500217437744,4.048655986785889,-1.093519926071167,-280.1400146484375,-5.320000171661377,-60.76000213623047,97
11:10:16:913,-1.6500682830810547,-1.890742301940918,1.6685409545898438,7.29093074798584,3.4791641235351562,-0.05503492057323456,-133.83999633789062,-21.139999389648438,-67.62000274658203,97
11:10:16:954,-2.0034451484680176,0.7615447044372559,0.13650727272033691,6.436692714691162,6.321837425231934,-1.5529417991638184,-99.4000015258789,1.6800000667572021,-61.459999084472656,97
11:10:16:993,-2.085148811340332,1.0992860794067383,0.9859359264373779,5.8337016105651855,6.9344000816345215,-0.4570291042327881,-153.3000030517578,23.030000686645508,-40.67000198364258,97
11:10:17:33,-1.0153570175170898,1.606846809387207,1.581251621246338,6.649653911590576,7.843672752380371,0.5335994362831116,-169.75,18.549999237060547,-45.56999969482422,94
11:10:17:74,-1.6124458312988281,-0.35695648193359375,1.3549714088439941,5.649453639984131,5.790630340576172,0.6460621356964111,-145.74000549316406,23.030000686645508,-51.17000198364258,94
11:10:17:114,-2.220285415649414,0.1872568130493164,0.9652931094169617,4.486542701721191,6.38165807723999,0.4977070987224579,-41.15999984741211,12.25,-61.25,94
11:10:17:153,-0.6066169738769531,-0.3096165657043457,0.7014069557189941,5.948556900024414,5.807380676269531,0.4091726541519165,-26.18000030517578,-14.770000457763672,-48.720001220703125,94
11:10:17:193,-0.5790925025939941,-1.7216720581054688,0.38692808151245117,5.831308364868164,3.964907169342041,0.19142580032348633,15.609999656677246,-13.649999618530273,-24.360000610351562,94
11:10:17:235,-0.24504804611206055,-0.3780946731567383,0.5315964221954346,6.104090690612793,5.213961124420166,0.46899324655532837,124.25,-34.22999954223633,4.900000095367432,94
11:10:17:273,0.3782386779785156,1.9314632415771484,0.8655564785003662,6.821937084197998,8.00638484954834,1.0193424224853516,77.62999725341797,-41.86000061035156,39.689998626708984,94
11:10:17:314,1.4568891525268555,1.7806243896484375,0.3134220540523529,8.264809608459473,8.300702095031738,0.5455635190010071,56.42000198364258,-13.579999923706055,44.59000015258789,94
11:10:17:353,2.114983558654785,5.944063186645508,3.824657440185547,9.45164966583252,13.950156211853027,5.01296329498291,-52.0099983215332,47.040000915527344,-3.0799999237060547,94
11:10:17:393,-0.9745745658874512,0.40222740173339844,1.9322277307510376,6.118447780609131,8.50887680053711,3.603590488433838,-136.0800018310547,69.86000061035156,15.609999656677246,94
11:10:17:434,-1.5913052558898926,-0.6066327095031738,0.8968491554260254,5.103890895843506,7.348358631134033,2.792424201965332,-83.72000122070312,64.68000030517578,6.019999980926514,94
11:10:17:474,-1.7956371307373047,-3.077212333679199,1.643979787826538,4.450649738311768,4.108476161956787,3.950549840927124,-84.48999786376953,98.84000396728516,16.59000015258789,94
11:10:17:514,-2.55826473236084,-3.4973833560943604,0.886390209197998,3.0484561920166016,2.8139593601226807,3.414557933807373,10.430000305175781,52.56999969482422,21.280000686645508,94
11:10:17:556,-2.8659141063690186,-5.340041160583496,-1.0883762836456299,2.0243279933929443,-0.36370906233787537,1.1676974296569824,101.1500015258789,-7.210000038146973,24.010000228881836,94
11:10:17:594,0.17474746704101562,-2.036179304122925,0.9363586902618408,5.108676433563232,2.431107759475708,3.4265220165252686,193.6199951171875,-39.20000076293945,27.09000015258789,94
11:10:17:633,1.3534374237060547,2.1861729621887207,1.8555283546447754,6.625725746154785,7.200003147125244,4.809573650360107,149.3800048828125,6.159999847412109,33.459999084472656,94
11:10:17:676,0.18113470077514648,2.610354423522949,-2.5604047775268555,5.498706817626953,8.276773452758789,-0.24646073579788208,216.79000854492188,-1.1200000047683716,10.920000076293945,94
11:10:17:713,0.12193632125854492,2.5859909057617188,-1.7458710670471191,5.469992637634277,8.898907661437988,0.13160523772239685,128.72999572753906,3.990000009536743,15.260000228881836,94
11:10:17:755,0.9283370971679688,2.6985831260681152,-2.6371359825134277,6.508477687835693,9.686145782470703,-1.4189438819885254,110.38999938964844,-11.550000190734863,18.760000228881836,94
11:10:17:793,0.34833240509033203,1.9616985321044922,-1.070266604423523,6.015556335449219,9.439685821533203,-0.11964112520217896,10.010000228881836,-7.769999980926514,22.049999237060547,94
11:10:17:835,1.3066225051879883,0.6964569091796875,0.286598801612854,7.300501823425293,8.34855842590332,1.3088740110397339,-12.109999656677246,-24.290000915527344,24.920000076293945,94
11:10:17:874,1.7344307899475098,0.4078531265258789,0.6542443037033081,8.161917686462402,8.161917686462402,1.8400806188583374,53.40999984741211,-16.3799991607666,7.139999866485596,94
11:10:17:915,1.9369373321533203,-1.13429594039917,-1.9804542064666748,8.848658561706543,6.3361945152282715,-1.289731502532959,64.75,-22.81999969482422,8.75,94
11:10:17:953,3.188154697418213,2.945964813232422,-2.8458595275878906,10.8969144821167,11.152946472167969,-2.8666017055511475,3.2899999618530273,-17.079999923706055,15.960000038146973,94
11:10:17:995,-0.6826581954956055,-2.7887539863586426,-0.6151114702224731,6.8554368019104,4.721039295196533,-0.7896314859390259,-131.32000732421875,0.5600000023841858,-2.450000047683716,94
11:10:18:44,-1.6104540824890137,-2.573655605316162,1.3743125200271606,5.525027275085449,4.292723655700684,1.5433706045150757,-23.030000686645508,5.25,1.8899999856948853,94
11:10:18:75,-2.1478652954101562,-1.277907371520996,1.8517534732818604,4.450649738311768,5.26899528503418,2.4837498664855957,-42.279998779296875,-1.75,18.270000457763672,94
11:10:18:115,-0.9717311859130859,-0.6394743919372559,-1.5297253131866455,5.383851051330566,5.747560024261475,-1.2801601886749268,-4.340000152587891,-7.840000152587891,29.049999237060547,94
11:10:18:154,2.3237128257751465,-0.8963456153869629,0.3114548325538635,9.260223388671875,5.266602516174316,0.638883650302887,-88.05999755859375,-28.280000686645508,51.65999984741211,94
11:10:18:193,2.584474563598633,-1.2932682037353516,1.834169626235962,10.16710376739502,4.54636287689209,2.620140790939331,-89.94999694824219,-53.20000076293945,50.189998626708984,94
11:10:18:242,2.4064035415649414,2.1985678672790527,-2.106584072113037,10.590633392333984,8.587841033935547,-1.8472589254379272,-52.0099983215332,-74.55000305175781,21.84000015258789,94
11:10:18:298,0.6617116928100586,0.11259174346923828,-0.4888560473918915,9.011369705200195,6.530013084411621,-0.3517449200153351,-123.12999725341797,-55.369998931884766,16.450000762939453,94
11:10:18:317,-0.9197239875793457,-0.9933967590332031,-1.2314441204071045,7.200003147125244,5.175675392150879,-1.4021940231323242,-33.18000030517578,-20.15999984741211,5.880000114440918,94
11:10:18:348,-1.2143440246582031,-0.4712076187133789,0.9233599901199341,6.601797103881836,5.580062389373779,0.9834501147270203,28.979999542236328,-14.980000495910645,6.720000267028809,94
11:10:18:391,-0.36656951904296875,1.3496942520141602,-0.5840643644332886,7.357929229736328,7.7383880615234375,-0.6699903011322021,-12.8100004196167,-15.819999694824219,15.819999694824219,94
11:10:18:434,0.9797263145446777,1.5353493690490723,-1.2750684022903442,8.949156761169434,8.307880401611328,-1.6797614097595215,32.060001373291016,0.2800000011920929,1.4700000286102295,94
11:10:18:476,0.3664722442626953,-0.39501190185546875,-0.5453187823295593,8.427520751953125,6.27876615524292,-1.0863415002822876,80.01000213623047,14.210000038146973,-21.770000457763672,94
11:10:18:514,-0.18155813217163086,-4.5541768074035645,-0.4592260718345642,7.83410120010376,0.9810572862625122,-1.1150553226470947,66.98999786376953,21.979999542236328,-11.6899995803833,94
11:10:18:555,0.4118022918701172,1.5002703666687012,0.6146335601806641,8.530412673950195,7.410572052001953,0.11246266961097717,58.869998931884766,13.300000190734863,-3.2899999618530273,94
11:10:18:594,-0.8918552398681641,1.5313825607299805,-0.7812747955322266,7.003791332244873,7.824529647827148,-1.4787644147872925,-4.130000114440918,7.630000114440918,3.640000104904175,94
11:10:18:636,-0.8685388565063477,1.5505304336547852,0.5063067674636841,6.809973239898682,8.23130989074707,-0.064606212079525,-24.639999389648438,3.5,2.0299999713897705,94
11:10:18:675,-0.7848014831542969,0.18375349044799805,-0.8028513789176941,6.697510242462158,6.910471439361572,-1.574477195739746,-15.680000305175781,-3.7100000381469727,5.179999828338623,94
11:10:18:751,-0.17224788665771484,1.2247300148010254,-1.7314939498901367,7.267002105712891,8.257630348205566,-2.935993194580078,-55.720001220703125,-5.949999809265137,12.109999656677246,94
11:10:18:754,0.2163400650024414,-2.3376245498657227,-0.27683985233306885,7.709674835205078,4.110869407653809,-1.550549030303955,-50.540000915527344,10.149999618530273,1.0499999523162842,94
11:10:18:797,-0.035582542419433594,-1.8452138900756836,-0.5430673360824585,7.448856830596924,4.141976356506348,-1.9525433778762817,-11.619999885559082,10.640000343322754,-8.75,94
11:10:18:835,0.6434383392333984,3.650212287902832,0.02113974094390869,8.288737297058105,10.549955368041992,-1.3830513954162598,34.15999984741211,20.15999984741211,-14.770000457763672,94
11:10:18:877,1.1215705871582031,1.4270477294921875,0.7845292091369629,9.047262191772461,8.683552742004395,-0.42352959513664246,-1.75,48.720001220703125,-8.75,94
11:10:18:914,-1.1375994682312012,-2.0724005699157715,1.2937850952148438,6.503692150115967,4.666004180908203,0.4091726541519165,4.340000152587891,64.33000183105469,-6.159999847412109,94
11:10:18:956,-0.7607674598693848,1.2689809799194336,0.29421019554138184,6.690331935882568,8.324630737304688,-0.5168496966362,93.44999694824219,58.029998779296875,-33.040000915527344,94
11:10:18:995,-0.9340372085571289,-1.201526165008545,0.09754151105880737,6.283552646636963,5.553741931915283,-0.6891329884529114,44.65999984741211,27.299999237060547,2.380000114440918,94
11:10:19:36,-1.1760239601135254,-1.631211757659912,-0.07319319248199463,5.747560024261475,4.716253280639648,-0.8781659603118896,32.900001525878906,4.619999885559082,-10.010000228881836,94
11:10:19:76,-0.1100311279296875,-0.9967737197875977,0.35301098227500916,6.786045074462891,5.101497650146484,-0.36370906233787537,33.810001373291016,0.49000000953674316,-8.890000343322754,94
11:10:19:116,-0.2698798179626465,-1.498037338256836,0.65760338306427,6.558726787567139,4.225724697113037,0.1052841916680336,46.619998931884766,5.039999961853027,9.65999984741211,94
11:10:19:155,0.09229183197021484,0.18175029754638672,-0.7851840853691101,6.943971633911133,5.950949668884277,-1.5337992906570435,40.7400016784668,7.420000076293945,11.0600004196167,94
11:10:19:196,0.9850196838378906,-0.5762748718261719,-0.9248572587966919,8.082954406738281,5.048855781555176,-1.9046868085861206,11.760000228881836,-24.360000610351562,14.350000381469727,94
11:10:19:235,0.96795654296875,0.04242992401123047,-0.6288588047027588,8.307880401611328,5.678168296813965,-1.765903115272522,17.5,-21.06999969482422,23.239999771118164,94
11:10:19:277,0.21923017501831055,3.3188109397888184,-0.05706489086151123,7.613961696624756,9.784252166748047,-1.2083754539489746,7.28000020980835,-29.610000610351562,4.130000114440918,94
11:10:19:315,-0.05815553665161133,1.8070316314697266,-1.649800181388855,7.322037220001221,8.724230766296387,-3.2135608196258545,-52.220001220703125,-18.40999984741211,11.130000114440918,94
11:10:19:356,-0.3202633857727051,0.3812985420227051,0.38576388359069824,6.97986364364624,7.393822193145752,-1.0815558433532715,-59.220001220703125,-5.039999961853027,5.740000247955322,94
11:10:19:395,-0.702232837677002,-0.4262080192565918,0.7795186042785645,6.422336101531982,6.479763507843018,-0.49292147159576416,-70.55999755859375,7.769999980926514,17.43000030517578,94
11:10:19:436,-0.16170597076416016,-0.33139514923095703,-0.1191173791885376,6.922436237335205,6.491727352142334,-1.4213367700576782,-61.67000198364258,12.039999961853027,15.260000228881836,94
11:10:19:476,0.2592291831970215,-0.2919154167175293,-0.04169464111328125,7.408178806304932,6.458228588104248,-1.3543376922607422,-37.72999954223633,11.619999885559082,10.710000038146973,94
11:10:19:516,0.6744623184204102,-0.5034432411193848,-0.16352522373199463,7.992027282714844,6.120840072631836,-1.5170495510101318,-14.90999984741211,18.270000457763672,3.5,94
11:10:19:555,0.09546184539794922,-0.7300925254821777,0.20226073265075684,7.436892509460449,5.711667537689209,-1.1006983518600464,1.9600000381469727,16.8700008392334,-5.53000020980835,94
11:10:19:597,0.02085590362548828,-0.3869056701660156,0.8700840473175049,7.3675007820129395,5.958127975463867,-0.2153540551662445,-3.9200000762939453,10.430000305175781,-2.940000057220459,94
11:10:19:636,-0.048399925231933594,-0.8244600296020508,0.10456150770187378,7.286144733428955,5.314458847045898,-0.9547362923622131,-2.799999952316284,-1.399999976158142,0.699999988079071,94
11:10:19:677,0.21970462799072266,-0.6097970008850098,0.007078886032104492,7.609175682067871,5.376672744750977,-1.0504491329193115,20.790000915527344,-7.769999980926514,-0.14000000059604645,94
11:10:19:716,0.5567007064819336,0.9172277450561523,1.1771891117095947,8.085347175598145,7.133004188537598,0.413958340883255,14,-12.600000381469727,5.53000020980835,94
11:10:19:757,0.00699615478515625,0.3662443161010742,0.07459235191345215,7.537391662597656,6.673582077026367,-0.6699903011322021,0.6299999952316284,-7.630000114440918,7.980000019073486,94
11:10:19:795,-0.22028636932373047,0.3753085136413574,0.05967390537261963,7.255037784576416,6.776473522186279,-0.6699903011322021,-11.899999618530273,-12.319999694824219,6.860000133514404,94
11:10:19:837,-0.3006558418273926,0.3098182678222656,-0.034574031829833984,7.099504470825195,6.788437843322754,-0.7728817462921143,-4.96999979019165,-8.890000343322754,0.8400000333786011,94
11:10:19:877,-0.1773538589477539,-0.23071002960205078,0.14653825759887695,7.178467750549316,6.190232276916504,-0.5551348924636841,-14.489999771118164,-9.449999809265137,-0.9800000190734863,94
11:10:19:917,0.1643986701965332,-0.18456792831420898,-0.42641860246658325,7.561319828033447,6.190232276916504,-1.234696388244629,3.640000104904175,0.5600000023841858,-6.159999847412109,94
11:10:19:957,0.09897661209106445,-0.11702632904052734,-1.321234941482544,7.520641803741455,6.228517532348633,-2.4598214626312256,28.90999984741211,7,-9.520000457763672,94
11:10:19:996,0.3108067512512207,0.0863189697265625,-0.3678551912307739,7.810173511505127,6.453442573547363,-1.5984054803848267,34.93000030517578,19.31999969482422,-8.1899995803833,94
11:10:20:37,-0.09209299087524414,-0.8363885879516602,1.0208112001419067,7.384250640869141,5.3216376304626465,0.04546363279223442,8.680000305175781,26.809999465942383,-8.890000343322754,94
11:10:20:77,-0.20001554489135742,-0.19437503814697266,0.08540236949920654,7.226324081420898,5.91505765914917,-0.8685945868492126,18.760000228881836,22.260000228881836,5.039999961853027,94
11:10:20:116,0.24198150634765625,0.4283485412597656,-0.06376194953918457,7.728816509246826,6.64486837387085,-1.0336993932724,-7.210000038146973,10.640000343322754,6.159999847412109,94
11:10:20:157,0.011731147766113281,-0.12248563766479492,0.5615530610084534,7.501499176025391,6.063412666320801,-0.2679961323738098,-31.360000610351562,-5.949999809265137,12.8100004196167,94
11:10:20:196,-0.053786277770996094,-0.2473011016845703,0.07404786348342896,7.422535419464111,5.876771926879883,-0.7369893789291382,-31.71000099182129,5.460000038146973,17.639999389648438,94
11:10:20:237,0.03162670135498047,0.3381514549255371,-0.06901699304580688,7.515855312347412,6.546762466430664,-0.8973084688186646,-18.200000762939453,6.230000019073486,10.779999732971191,94
11:10:20:277,-0.10869598388671875,0.34134912490844727,-0.28875309228897095,7.348358631134033,6.6352972984313965,-1.1892328262329102,-21.139999389648438,4.690000057220459,10.079999923706055,94
11:10:20:316,0.19635295867919922,-0.10594415664672852,0.04656493663787842,7.70249605178833,6.161518096923828,-0.8422735333442688,-15.75,3.5,7,94
11:10:20:357,-0.10134220123291016,-0.17663955688476562,0.28036272525787354,7.379465103149414,6.0466628074646,-0.5383850932121277,-0.42000001668930054,7.28000020980835,3.7799999713897705,94
11:10:20:396,0.008896350860595703,0.2262263298034668,0.21663320064544678,7.491927623748779,6.506085395812988,-0.5479563474655151,5.53000020980835,7.980000019073486,2.940000057220459,94
11:10:20:436,-0.17282342910766602,0.10058116912841797,0.2843335270881653,7.267002105712891,6.405585765838623,-0.4091726541519165,1.6100000143051147,7.490000247955322,2.0299999713897705,94
11:10:20:478,-0.05785989761352539,0.04026603698730469,0.24852365255355835,7.3675007820129395,6.355337142944336,-0.38285160064697266,-0.6299999952316284,4.340000152587891,2.1700000762939453,94
11:10:20:517,-0.015659809112548828,0.06666898727416992,0.15670523047447205,7.405786037445068,6.398407459259033,-0.43549373745918274,-4.900000095367432,0.9100000262260437,2.870000123977661,94
11:10:20:557,0.021928787231445312,0.08204936981201172,0.075593501329422,7.448856830596924,6.434299945831299,-0.4977070987224579,-5.039999961853027,0.7699999809265137,1.4700000286102295,94
11:10:20:596,-0.08774089813232422,-0.010930538177490234,0.006875574588775635,7.317252159118652,6.338587284088135,-0.5647061467170715,-9.380000114440918,-0.49000000953674316,1.399999976158142,94
11:10:20:638,0.0657191276550293,-0.029801368713378906,0.026557326316833496,7.487142086029053,6.312265872955322,-0.5383850932121277,-11.6899995803833,-1.4700000286102295,2.1700000762939453,94
11:10:20:677,0.0755457878112793,-0.08318233489990234,0.023160099983215332,7.515855312347412,6.238089084625244,-0.5359922647476196,-8.260000228881836,-0.14000000059604645,1.399999976158142,94
11:10:20:717,0.04129457473754883,-0.0531468391418457,0.026185154914855957,7.491927623748779,6.254837989807129,-0.5264209508895874,-6.510000228881836,0.2800000011920929,0.9800000190734863,94
11:10:20:758,0.036864280700683594,-0.055916786193847656,0.0056340694427490234,7.496713638305664,6.238089084625244,-0.5455635190010071,-6.929999828338623,0.42000001668930054,2.0999999046325684,94
11:10:20:796,0.040976524353027344,-0.08684778213500977,0.01599276065826416,7.511070251464844,6.185446262359619,-0.5312066078186035,-7.490000247955322,0.14000000059604645,2.870000123977661,94
11:10:20:838,0.023209571838378906,-0.05416393280029297,0.12764966487884521,7.499105930328369,6.204589366912842,-0.38763725757598877,-7.769999980926514,-0.699999988079071,3.640000104904175,94
11:10:20:878,-0.03503131866455078,-0.04524564743041992,0.07914862036705017,7.432106971740723,6.20219612121582,-0.4163511395454407,-5.599999904632568,-0.7699999809265137,2.7300000190734863,94
11:10:20:917,0.0026030540466308594,0.08440160751342773,0.08437573909759521,7.470392227172852,6.3529438972473145,-0.3900300860404968,-7.699999809265137,-1.1200000047683716,3.569999933242798,94
11:10:20:958,0.023139476776123047,0.023493289947509766,-0.0033269524574279785,7.496713638305664,6.297908782958984,-0.4785645008087158,-9.65999984741211,-0.42000001668930054,2.309999942779541,94
11:10:20:997,0.16782331466674805,-0.042461395263671875,-0.08306041359901428,7.683353424072266,6.221338748931885,-0.5790630578994751,-6.369999885559082,0.6299999952316284,1.8200000524520874,94
11:10:21:38,0.1227731704711914,0.12682867050170898,-0.08367663621902466,7.668996810913086,6.422336101531982,-0.6005984544754028,-8.329999923706055,0.6299999952316284,2.5199999809265137,94
11:10:21:79,-0.05109357833862305,-0.1244196891784668,0.059399694204330444,7.482356548309326,6.1399827003479,-0.44267216324806213,-11.130000114440918,0.07000000029802322,3.5,94
11:10:21:117,0.04526662826538086,0.2948012351989746,-0.061592936515808105,7.590033531188965,6.632904052734375,-0.5790630578994751,-10.920000076293945,-2.380000114440918,5.389999866485596,94
11:10:21:158,-0.18584108352661133,0.35261106491088867,-0.020560503005981445,7.312465667724609,6.778866291046143,-0.5431707501411438,-23.170000076293945,-2.240000009536743,14.90999984741211,94
11:10:21:197,0.3394632339477539,-0.026106834411621094,0.0907500684261322,7.922636032104492,6.393621921539307,-0.4091726541519165,-21,11.829999923706055,-7.420000076293945,94
11:10:21:239,0.13565778732299805,-0.2123112678527832,0.44970887899398804,7.752745151519775,6.154339790344238,0.062213387340307236,5.039999961853027,21.6299991607666,-21.90999984741211,94
11:10:21:278,-0.8026604652404785,-0.11624956130981445,0.10134226083755493,6.613761901855469,6.221338748931885,-0.26081767678260803,21.489999771118164,11.899999618530273,-9.170000076293945,94
11:10:21:318,-0.9847807884216309,-0.5351934432983398,0.09064511954784393,6.185446262359619,5.6685967445373535,-0.24885354936122894,13.440000534057617,9.800000190734863,-3.990000009536743,94
11:10:21:358,-0.20014715194702148,-0.6693511009216309,0.3730546236038208,6.920042991638184,5.367101192474365,0.12681959569454193,27.860000610351562,8.819999694824219,-5.460000038146973,94
11:10:21:397,0.09065008163452148,0.5767030715942383,-0.11886456608772278,7.2335028648376465,6.757331371307373,-0.39481574296951294,9.9399995803833,8.1899995803833,2.6600000858306885,94
11:10:21:438,0.2428889274597168,0.08233928680419922,0.32221662998199463,7.4464640617370605,6.283552646636963,0.12681959569454193,-5.599999904632568,-0.6299999952316284,4.269999980926514,94
11:10:21:480,-0.11005592346191406,-0.07195520401000977,0.1735459566116333,7.066005229949951,6.111269474029541,0.02153540588915348,-26.600000381469727,-7.840000152587891,20.93000030517578,94
11:10:21:518,0.13975191116333008,0.1817178726196289,-0.09853123128414154,7.350750923156738,6.410372257232666,-0.2751745879650116,-32.34000015258789,-8.470000267028809,18.40999984741211,94
11:10:21:559,0.3874545097351074,0.4612269401550293,-0.18219491839408875,7.695317268371582,6.805188179016113,-0.4043869972229004,-25.760000228881836,-5.039999961853027,12.180000305175781,94
11:10:21:597,0.3520774841308594,0.13161325454711914,-0.23189756274223328,7.747959613800049,6.508477687835693,-0.5120640397071838,-18.549999237060547,-4.409999847412109,8.75,94
11:10:21:640,0.17063474655151367,-0.13207769393920898,-0.05534851551055908,7.609175682067871,6.211767196655273,-0.3493521213531494,-10.220000267028809,-3.009999990463257,7.210000038146973,94
11:10:21:678,-0.04343223571777344,-0.1152334213256836,0.10694758594036102,7.384250640869141,6.199803352355957,-0.16031910479068756,-6.230000019073486,-1.4700000286102295,7.559999942779541,94
11:10:21:719,0.005453586578369141,-0.03667306900024414,0.09704360365867615,7.434500217437744,6.269195556640625,-0.1459621787071228,-6.090000152587891,-1.4700000286102295,6.230000019073486,94
11:10:21:758,0.010105609893798828,0.012774944305419922,0.04126398265361786,7.441678524017334,6.321837425231934,-0.19142580032348633,-5.809999942779541,1.2599999904632568,4.059999942779541,94
11:10:21:797,0.09614038467407227,-0.09123563766479492,0.03875395655632019,7.551748275756836,6.1950178146362305,-0.18424734473228455,-4.480000019073486,1.6100000143051147,3.009999990463257,94
11:10:21:839,0.1209402084350586,-0.009818077087402344,0.14203013479709625,7.606783390045166,6.273981094360352,-0.04546363279223442,-4.550000190734863,2.940000057220459,2.309999942779541,94
11:10:21:879,0.06612396240234375,-0.19545221328735352,0.008339911699295044,7.568498134613037,6.039484024047852,-0.17706887423992157,-5.039999961853027,2.870000123977661,2.5899999141693115,94
11:10:21:917,0.03567075729370117,-0.09510517120361328,0.0506998673081398,7.546962738037109,6.116055011749268,-0.12203396111726761,-2.0299999713897705,2.7300000190734863,2.799999952316284,94
11:10:21:959,0.05150747299194336,0.004313945770263672,0.01758880913257599,7.575676441192627,6.216552734375,-0.15074782073497772,-2.870000123977661,2.7300000190734863,2.870000123977661,94
11:10:21:998,0.012492179870605469,-0.0022912025451660156,0.07149878144264221,7.539783954620361,6.209374904632568,-0.07896314561367035,-2.6600000858306885,2.7300000190734863,3.0799999237060547,94
11:10:22:40,-0.058919429779052734,-0.0898890495300293,0.051456235349178314,7.45364236831665,6.099304676055908,-0.08614162355661392,-2.940000057220459,2.5199999809265137,3.8499999046325684,93
11:10:22:81,0.08877706527709961,-0.0431971549987793,0.016279637813568115,7.623533248901367,6.135197162628174,-0.11724831163883209,-3.009999990463257,2.450000047683716,3.5,93
11:10:22:118,0.028907299041748047,-0.05752849578857422,-0.02908995747566223,7.570890426635742,6.106483459472656,-0.1698903888463974,-2.5199999809265137,3.0799999237060547,2.940000057220459,93
11:10:22:159,0.005897998809814453,-0.013480186462402344,0.015013180673122406,7.549355506896973,6.147161483764648,-0.12203396111726761,-2.940000057220459,2.6600000858306885,2.799999952316284,93
11:10:22:198,0.08511686325073242,-0.047154903411865234,-0.02627459168434143,7.649853706359863,6.10169792175293,-0.1698903888463974,-2.1700000762939453,2.380000114440918,3.569999933242798,93
11:10:22:239,-0.02187633514404297,0.013961315155029297,0.003865659236907959,7.537391662597656,6.166304588317871,-0.13878372311592102,-2.1700000762939453,2.5899999141693115,3.0799999237060547,93
11:10:22:279,0.0246124267578125,0.030311107635498047,-0.012221530079841614,7.590033531188965,6.190232276916504,-0.1579262912273407,-2.6600000858306885,2.450000047683716,3.009999990463257,93
11:10:22:320,0.1326308250427246,0.16016101837158203,-0.04231962561607361,7.731209754943848,6.3601226806640625,-0.1986042857170105,-4.690000057220459,1.4700000286102295,3.2899999618530273,93
11:10:22:358,0.7071819305419922,0.2889261245727539,-0.44159266352653503,8.482556343078613,6.561119556427002,-0.7082754969596863,-11.40999984741211,-0.14000000059604645,13.440000534057617,93
11:10:22:399,0.7227144241333008,0.1756272315979004,0.48708516359329224,8.678767204284668,6.491727352142334,0.34217363595962524,-19.46000099182129,10.569999694824219,-5.599999904632568,93
11:10:22:439,0.3963174819946289,0.3261852264404297,0.6346931457519531,8.451449394226074,6.723831653594971,0.6484549045562744,13.300000190734863,18.34000015258789,-24.010000228881836,93
11:10:22:480,0.5965366363525391,0.24563360214233398,0.9346340894699097,8.800802230834961,6.704688549041748,1.1820544004440308,42,21.280000686645508,-26.739999771118164,93
11:10:22:518,-0.2578458786010742,-0.731907844543457,0.2691427171230316,7.8819580078125,5.544170379638672,0.5838487148284912,51.17000198364258,8.680000305175781,-26.809999465942383,93
11:10:22:560,-0.3938736915588379,0.7448821067810059,0.7532207369804382,7.647461414337158,7.207180976867676,1.2562319040298462,-2.5899999141693115,18.270000457763672,-42.349998474121094,93
11:10:22:598,-0.8702340126037598,0.4982790946960449,-0.07315653562545776,6.953542709350586,7.085147857666016,0.41156551241874695,-5.599999904632568,16.729999542236328,-36.189998626708984,93
11:10:22:640,-0.3745918273925781,2.025742530822754,0.41621071100234985,7.355536937713623,9.119047164916992,1.0049854516983032,-31.920000076293945,28.350000381469727,-46.20000076293945,93
11:10:22:679,-1.6913390159606934,1.2396559715270996,-0.19153809547424316,5.615954875946045,8.642874717712402,0.3493521213531494,-51.310001373291016,36.68000030517578,-54.25,93
11:10:22:720,-1.3664708137512207,2.890669822692871,-0.18003010749816895,5.599205493927002,11.016555786132812,0.3158525824546814,-88.05999755859375,32.40999984741211,-55.22999954223633,93
11:10:22:758,-1.853137493133545,1.772714614868164,0.5393661260604858,4.649254322052002,10.341779708862305,1.1700903177261353,-135.3800048828125,45.56999969482422,-59.5,93
11:10:22:799,-1.0709443092346191,0.039905548095703125,0.923457145690918,5.1637115478515625,8.61894702911377,1.7850456237792969,-182.6300048828125,71.26000213623047,-51.52000045776367,93
11:10:22:839,-1.019467830657959,0.2520637512207031,1.496812105178833,4.960320949554443,8.894121170043945,2.7326035499572754,-132.64999389648438,99.95999908447266,-75.52999877929688,93
11:10:22:881,-1.7516462802886963,-1.237870693206787,1.9669811725616455,3.7902309894561768,7.094719409942627,3.6945178508758545,-85.88999938964844,118.6500015258789,-92.68000030517578,93
11:10:22:918,-1.9487948417663574,-0.7395291328430176,2.946108341217041,3.1058835983276367,7.408178806304932,5.410171985626221,-26.31999969482422,100.66000366210938,-101.36000061035156,93
11:10:22:960,-2.661648750305176,-0.00011730194091796875,1.652439832687378,1.727617859840393,8.147561073303223,4.529613494873047,54.38999938964844,100.37999725341797,-130.33999633789062,93
11:10:23:48,-3.6741251945495605,0.36170101165771484,1.057784080505371,-0.20338992774486542,8.599804878234863,4.199403762817383,88.62000274658203,86.80000305175781,-153.02000427246094,91
11:10:23:85,-3.3144946098327637,1.2541465759277344,0.8155989646911621,-0.672383189201355,9.805787086486816,4.161118507385254,82.11000061035156,62.790000915527344,-170.10000610351562,91
11:10:23:88,-3.509183406829834,0.28929901123046875,0.08968734741210938,-1.7443678379058838,8.913264274597168,3.4576287269592285,59.56999969482422,52.08000183105469,-179.75999450683594,91
11:10:23:114,-3.707047939300537,0.8593158721923828,0.18277668952941895,-2.8689942359924316,9.698110580444336,3.596412420272827,54.040000915527344,30.170000076293945,-182.77000427246094,91
11:10:23:154,-3.71028470993042,0.7621088027954102,1.463230848312378,-3.799802303314209,9.791430473327637,5.242674350738525,-14.630000114440918,5.110000133514404,-185.77999877929688,91
11:10:23:195,-3.7415881156921387,-1.2203435897827148,1.73529052734375,-4.766502857208252,7.503891944885254,5.948556900024414,-48.720001220703125,-12.670000076293945,-186.69000244140625,91
11:10:23:236,-3.8451149463653564,-1.1791863441467285,1.0685515403747559,-5.831308364868164,7.2502522468566895,5.548955917358398,-55.29999923706055,-22.049999237060547,-178.7100067138672,91
11:10:23:280,-3.9336798191070557,-2.932262897491455,1.107522964477539,-6.903293132781982,4.764110088348389,5.864808082580566,-67.9000015258789,-14.140000343322754,-155.0500030517578,91
11:10:23:321,-4.086844444274902,-2.9066882133483887,-0.7411010265350342,-8.078168869018555,4.063012599945068,3.830909013748169,-37.939998626708984,-13.930000305175781,-145.9499969482422,91
11:10:23:359,-3.483872890472412,-2.032468795776367,-0.5067393779754639,-8.346165657043457,4.429114818572998,3.9385859966278076,22.81999969482422,-21.700000762939453,-130.33999633789062,91
11:10:23:407,-2.867496967315674,-1.8365435600280762,-1.8831987380981445,-8.446663856506348,4.1659040451049805,2.091326951980591,61.7400016784668,-14.279999732971191,-121.87000274658203,91
11:10:23:462,-1.9360313415527344,-1.436692237854004,-1.3438470363616943,-7.999206066131592,4.206582069396973,2.2947168350219727,47.11000061035156,-28.559999465942383,-114.80000305175781,91
11:10:23:480,-0.9247770309448242,-1.8844289779663086,-1.337330937385559,-7.219145774841309,3.28773832321167,1.9669002294540405,74.9000015258789,-23.59000015258789,-105.62999725341797,91
11:10:23:513,-0.46225452423095703,-2.141162395477295,-0.9301238059997559,-6.872186660766602,2.4957141876220703,2.1415762901306152,79.44999694824219,-21.350000381469727,-103.31999969482422,91
11:10:23:556,0.5509543418884277,-2.093867301940918,0.2379152774810791,-5.72123908996582,2.0195422172546387,3.369094133377075,98.41999816894531,-17.43000030517578,-91.62999725341797,91
11:10:23:599,0.2512521743774414,-1.9737180471420288,0.05441999435424805,-5.958127975463867,1.6462620496749878,3.1992037296295166,68.66999816894531,-7.210000038146973,-73.77999877929688,91
11:10:23:641,-0.045937538146972656,-3.116123676300049,-0.6436824798583984,-6.2668023109436035,-0.2751745879650116,2.3401806354522705,72.66000366210938,-7.840000152587891,-60.54999923706055,91
11:10:23:681,-0.12672090530395508,-1.5912835597991943,0.8805480003356934,-6.379265785217285,0.851844847202301,4.084547996520996,84.9800033569336,-7.070000171661377,-36.470001220703125,91
11:10:23:720,-0.21814584732055664,-0.8289190530776978,1.2423450946807861,-6.525227069854736,1.4069796800613403,4.756931304931641,66.36000061035156,-16.65999984741211,-23.8700008392334,91
11:10:23:757,-1.4704694747924805,-0.20562756061553955,-0.7634127140045166,-8.14516830444336,1.978864312171936,2.5603203773498535,38.779998779296875,-12.529999732971191,-14.5600004196167,91
11:10:23:801,-0.942835807800293,-0.24681520462036133,0.9704465866088867,-7.853243827819824,1.8759729862213135,4.5367913246154785,50.04999923706055,-14.210000038146973,-14.5600004196167,91
11:10:23:840,-1.4280877113342285,-0.3065648078918457,1.178351879119873,-8.695517539978027,1.7395820617675781,5.039284706115723,9.029999732971191,-14,-11.6899995803833,91
11:10:23:889,-1.1616125106811523,-1.0109550952911377,0.1961205005645752,-8.71944522857666,0.7824530005455017,4.106083393096924,18.200000762939453,-13.440000534057617,-12.670000076293945,91
11:10:23:926,-0.9924607276916504,-0.7972785234451294,0.16263937950134277,-8.798408508300781,0.7968099117279053,4.113262176513672,66.70999908447266,-10.079999923706055,-10.640000343322754,91
11:10:23:959,-0.37857484817504883,-0.27219951152801514,0.4631924629211426,-8.279166221618652,1.2538390159606934,4.529613494873047,75.5999984741211,-7.630000114440918,-8.539999961853027,91
11:10:24:1,-0.3775157928466797,0.8082829713821411,0.46818065643310547,-8.372486114501953,2.5363922119140625,4.651647090911865,71.95999908447266,-9.029999732971191,0.07000000029802322,90
11:10:24:40,-0.02635955810546875,0.7040537595748901,-0.7223250865936279,-8.02791976928711,2.6081764698028564,3.280559778213501,75.25,-9.3100004196167,-2.450000047683716,90
11:10:24:82,-0.3924541473388672,0.006194114685058594,-0.8822271823883057,-8.492127418518066,1.9118653535842896,2.9001009464263916,76.44000244140625,-11.760000228881836,-0.3499999940395355,90
11:10:24:120,0.3789982795715332,0.13512468338012695,0.2283763885498047,-7.625925540924072,2.0745770931243896,4.067798614501953,88.4800033569336,-18.969999313354492,10.220000267028809,90
11:10:24:161,1.0459308624267578,0.24018359184265137,1.0996313095092773,-6.697510242462158,2.2396819591522217,5.213961124420166,111.6500015258789,-12.109999656677246,21.770000457763672,90
11:10:24:200,-0.23141145706176758,0.5673415660858154,-1.7313435077667236,-8.032705307006836,2.7086753845214844,1.950150489807129,85.61000061035156,-0.9800000190734863,20.3700008392334,90
11:10:24:246,-0.02050304412841797,0.6778414249420166,-0.9907376766204834,-7.82692289352417,2.988635540008545,2.4430718421936035,65.59000396728516,-18.690000534057617,31.920000076293945,90
11:10:24:281,0.45067644119262695,0.7796409130096436,-0.6892201900482178,-7.243074417114258,3.2853453159332275,2.57228422164917,80.36000061035156,-25.899999618530273,34.93000030517578,90
11:10:24:321,0.5347385406494141,2.1646907329559326,-0.8806285858154297,-7.025327682495117,5.2115678787231445,2.1607186794281006,58.380001068115234,-29.81999969482422,39.27000045776367,90
11:10:24:360,0.9656977653503418,1.1823601722717285,-1.160096287727356,-6.3529438972473145,4.524827480316162,1.5912269353866577,37.72999954223633,-34.58000183105469,38.56999969482422,90
11:10:24:401,1.2721796035766602,1.3612818717956543,-1.2381867170333862,-5.72841739654541,5.044069766998291,1.2035897970199585,15.329999923706055,-46.27000045776367,47.25,90
11:10:24:441,2.388352394104004,1.303422451019287,0.23266172409057617,-4.015156269073486,5.312066078186035,2.7326035499572754,17.290000915527344,-56.209999084472656,47.95000076293945,90
11:10:24:482,3.499516248703003,2.166408061981201,1.2408854961395264,-2.029113531112671,6.716653347015381,4.051048755645752,21.84000015258789,-54.95000076293945,47.18000030517578,90
11:10:24:520,3.502145767211914,1.750354290008545,2.0149221420288086,-1.1509476900100708,6.73818826675415,5.328815937042236,17.850000381469727,-30.8700008392334,42.42000198364258,90
11:10:24:604,2.4743783473968506,2.275099754333496,2.1345303058624268,-1.5601203441619873,7.8317084312438965,5.982056617736816,-57.119998931884766,-2.450000047683716,43.33000183105469,90
11:10:24:608,1.6655641794204712,-1.0302505493164062,-0.09177827835083008,-1.9525433778762817,4.268795490264893,3.7328033447265625,-80.29000091552734,51.79999923706055,38.779998779296875,90
11:10:24:636,0.7677452564239502,-0.22695207595825195,0.3113429546356201,-2.65842604637146,5.015356063842773,4.2137603759765625,-38.9900016784668,71.12000274658203,54.31999969482422,90
11:10:24:674,0.4457416534423828,-0.5701556205749512,-0.5663995742797852,-2.8689942359924316,4.529613494873047,3.194417953491211,-116.34000396728516,129.77999877929688,68.73999786376953,90
11:10:24:717,-2.6813342571258545,-2.732177734375,-1.9290125370025635,-6.666403770446777,1.6845470666885376,1.3495519161224365,40.529998779296875,175.13999938964844,112.48999786376953,90
11:10:24:756,0.14821386337280273,3.2143802642822266,-1.8188632726669312,-3.799802303314209,8.434700012207031,1.0049854516983032,74.12999725341797,174.86000061035156,129.63999938964844,90
11:10:24:799,-2.3029656410217285,4.975811958312988,-3.8823697566986084,-6.826723098754883,11.440084457397461,-2.029113531112671,3.0799999237060547,219.52000427246094,144.05999755859375,90
11:10:24:841,0.4604799747467041,5.102405548095703,-1.892256259918213,-3.948157548904419,12.842279434204102,-0.5120640397071838,-55.369998931884766,148.47000122070312,129.7100067138672,90
11:10:24:882,0.9388332366943359,1.0114541053771973,-2.715959072113037,-3.235095977783203,9.004191398620605,-2.014756679534912,-4.269999980926514,168.07000732421875,129.99000549316406,90
11:10:24:921,-0.8971099853515625,4.869304656982422,-2.6934456825256348,-5.295316696166992,14.079368591308594,-2.665604591369629,94.70999908447266,164.9199981689453,151.5500030517578,90
11:10:25:0,0.5170087814331055,4.992313385009766,-3.4660232067108154,-3.751945972442627,15.450455665588379,-4.304687976837158,49.42000198364258,127.47000122070312,137.27000427246094,89
11:10:25:5,-0.07261419296264648,1.4727725982666016,-0.8643032312393188,-4.35972261428833,12.299108505249023,-1.919043779373169,-32.27000045776367,82.11000061035156,112.84000396728516,89
11:10:25:38,1.341231107711792,1.2126741409301758,0.11637431383132935,-2.610569477081299,12.342178344726562,-0.9092726111412048,3.009999990463257,39.34000015258789,111.02000427246094,89
11:10:25:78,1.2586679458618164,0.0015249252319335938,0.2692111134529114,-2.3784656524658203,11.131410598754883,-0.6891329884529114,-86.5199966430664,27.09000015258789,102.19999694824219,89
11:10:25:120,2.0884900093078613,1.0464048385620117,0.3474527597427368,-1.026520848274231,12.437891960144043,-0.5240281224250793,-22.75,18.34000015258789,84.84000396728516,89
11:10:25:162,1.305168628692627,0.49830055236816406,-0.3001437783241272,-1.4835500717163086,12.014362335205078,-1.246660590171814,1.5399999618530273,7.349999904632568,45.290000915527344,89
11:10:25:200,1.6528689861297607,0.5996379852294922,1.932567834854126,-0.7226324081420898,12.265608787536621,1.4691929817199707,-6.579999923706055,1.9600000381469727,14.630000114440918,89
11:10:25:242,1.4371505975723267,-1.2928924560546875,1.390999436378479,-0.5790630578994751,10.04985523223877,1.275374412536621,-17.360000610351562,21.559999465942383,1.6800000667572021,89
11:10:25:281,1.8369390964508057,-1.6181621551513672,0.09058576077222824,0.2799602448940277,9.32004451751709,-0.0023928226437419653,-17.850000381469727,20.440000534057617,-6.159999847412109,89
11:10:25:322,1.314496397972107,-2.5579400062561035,-0.18021343648433685,0.08614162355661392,7.740781307220459,-0.31824538111686707,-45.849998474121094,17.850000381469727,-2.309999942779541,89
11:10:25:361,0.9424843788146973,-1.5965023040771484,0.4415922164916992,-0.05024927482008934,8.303093910217285,0.413958340883255,-25.829999923706055,15.819999694824219,4.269999980926514,89
11:10:25:402,1.0506974458694458,0.034066200256347656,0.28053194284439087,0.3206382095813751,9.942178726196289,0.32303106784820557,-27.510000228881836,9.100000381469727,7.769999980926514,89
11:10:25:441,0.7697304487228394,1.6754283905029297,0.4235084056854248,0.23210379481315613,12.002398490905762,0.5718846321105957,-19.31999969482422,5.949999809265137,2.799999952316284,89
11:10:25:483,1.2685463428497314,1.7404232025146484,0.727401077747345,1.0480562448501587,12.502498626708984,1.057627558708191,-35.630001068115234,3.430000066757202,-7.840000152587891,89
11:10:25:521,1.114378571510315,-1.5843334197998047,0.9360586404800415,1.1724830865859985,8.781659126281738,1.5002998113632202,-40.11000061035156,12.25,-14.069999694824219,89
11:10:25:562,0.8168467283248901,-1.9106574058532715,0.8503025770187378,1.0791629552841187,7.977671146392822,1.6271194219589233,-0.49000000953674316,14.90999984741211,-10.850000381469727,89
11:10:25:601,0.43908050656318665,-1.7295236587524414,0.3931034207344055,0.8111668825149536,7.726424217224121,1.2681961059570312,20.440000534057617,19.600000381469727,2.240000009536743,89
11:10:25:643,0.5101478099822998,-1.3797903060913086,-0.039655089378356934,1.0097711086273193,7.731209754943848,0.8255237936973572,23.100000381469727,15.609999656677246,20.510000228881836,89
11:10:25:682,0.6703715324401855,0.5979433059692383,0.30327117443084717,1.3375877141952515,9.858428955078125,1.2442678213119507,17.56999969482422,23.65999984741211,32.689998626708984,89
11:10:25:723,0.8330073356628418,1.1942882537841797,0.09139049053192139,1.7084753513336182,10.753345489501953,1.0552347898483276,-25.479999542236328,32.34000015258789,44.099998474121094,89
11:10:25:761,0.963115930557251,0.007871627807617188,0.9096431732177734,2.0793628692626953,9.568897247314453,2.100898265838623,-119.84000396728516,30.450000762939453,73.56999969482422,89
11:10:25:802,1.0978310108184814,-0.2291555404663086,0.702829122543335,2.4885356426239014,9.274580955505371,2.069791555404663,-207.6199951171875,16.100000381469727,100.02999877929688,89
11:10:25:907,1.2840875387191772,0.3813810348510742,3.226910352706909,2.995814085006714,9.980463027954102,5.400600433349609,-294.9100036621094,-17.989999771118164,125.2300033569336,89
11:10:25:929,1.6762034893035889,0.7836694717407227,3.178776979446411,3.806980848312378,10.578668594360352,6.147161483764648,-272.2300109863281,-51.65999984741211,81.2699966430664,89
11:10:25:941,0.38191938400268555,-1.892228603363037,0.5962209701538086,2.6081764698028564,7.429713726043701,3.713660717010498,-154.49000549316406,-61.810001373291016,45.63999938964844,89
11:10:25:954,0.9582977294921875,-0.9816188812255859,1.4494197368621826,3.4241292476654053,8.094919204711914,4.9292144775390625,-80.5,-120.4000015258789,40.38999938964844,89
11:10:25:997,2.0836477279663086,-0.9862918853759766,1.8907825946807861,5.0703911781311035,7.843672752380371,5.843273162841797,-94.43000030517578,-74.62000274658203,6.369999885559082,89
11:10:26:38,0.6772468090057373,-2.691805839538574,2.724350929260254,3.8333017826080322,5.465207099914551,7.357929229736328,-49.630001068115234,-32.970001220703125,-25.200000762939453,88
11:10:26:81,0.39439964294433594,-1.672966480255127,2.141195774078369,3.649054527282715,6.065804958343506,7.310072898864746,-7.070000171661377,-10.850000381469727,-50.68000030517578,88
11:10:26:122,-0.7641217708587646,-1.9298787117004395,0.35574769973754883,2.2995026111602783,5.326423168182373,5.613561630249023,26.040000915527344,-1.5399999618530273,-63.13999938964844,88
11:10:26:163,-0.43518567085266113,-0.9830255508422852,0.6157650947570801,2.5196423530578613,6.027520179748535,6.027520179748535,-3.430000066757202,10.569999694824219,-62.93000030517578,88
11:10:26:202,-0.1394944190979004,-2.0460023880004883,0.1423029899597168,2.7804601192474365,4.453042984008789,5.589633941650391,-131.9499969482422,9.800000190734863,-21,88
11:10:26:243,0.9412462711334229,-4.741728782653809,0.09469938278198242,4.096512317657471,0.5718846321105957,5.565705299377441,-187.9499969482422,6.019999980926514,8.819999694824219,88
11:10:26:283,1.1205346584320068,-3.265048027038574,1.538252830505371,4.555934429168701,1.2323036193847656,7.393822193145752,-112.48999786376953,7.699999809265137,20.229999542236328,88
11:10:26:322,1.68318772315979,-0.42978405952453613,2.5858964920043945,5.539384365081787,3.9601213932037354,9.087940216064453,-20.860000610351562,6.440000057220459,10.850000381469727,88
11:10:26:362,1.3982348442077637,-0.42614030838012695,1.7356362342834473,5.603990077972412,3.8572301864624023,8.671588897705078,3.7799999713897705,10.569999694824219,5.53000020980835,88
11:10:26:403,0.5787672996520996,-1.0377023220062256,1.2659969329833984,4.9292144775390625,2.9862425327301025,8.518448829650879,22.1200008392334,14.5600004196167,2.450000047683716,88
11:10:26:442,0.3749580383300781,-0.15442872047424316,0.903684139251709,4.8191447257995605,3.830909013748169,8.382057189941406,26.110000610351562,11.899999618530273,8.75,88
11:10:26:485,-0.3910808563232422,-0.1599140167236328,-0.0810403823852539,3.9553356170654297,3.785445213317871,7.377072334289551,4.269999980926514,17.079999923706055,9.730000495910645,88
11:10:26:523,-0.5310900211334229,-0.15090227127075195,0.051937103271484375,3.682554006576538,3.7567315101623535,7.52303409576416,-6.860000133514404,14.980000495910645,8.539999961853027,88
11:10:26:562,-0.5186707973480225,-0.6452286243438721,0.3956875801086426,3.565305471420288,3.10109806060791,7.9657063484191895,-3.2200000286102295,8.539999961853027,9.239999771118164,88
11:10:26:603,-0.2445676326751709,-0.32092857360839844,0.5883750915527344,3.778266668319702,3.345165967941284,8.305487632751465,15.75,6.230000019073486,9.029999732971191,88
11:10:26:642,-0.15736889839172363,0.7042145729064941,0.5415277481079102,3.8261232376098633,4.54636287689209,8.394021987915039,11.130000114440918,2.5899999141693115,3.9200000762939453,88
11:10:26:683,-0.12015223503112793,0.010151386260986328,0.2953958511352539,3.8333017826080322,3.854837417602539,8.221738815307617,2.5199999809265137,3.8499999046325684,-5.53000020980835,88
11:10:26:724,0.018733739852905273,0.10574817657470703,0.3033161163330078,3.9768712520599365,3.9768712520599365,8.305487632751465,5.599999904632568,1.0499999523162842,-7.28000020980835,88
11:10:26:762,0.05327177047729492,0.5287065505981445,-0.14594125747680664,4.0247273445129395,4.53200626373291,7.81974458694458,-9.869999885559082,-3.8499999046325684,-4.760000228881836,88
11:10:26:803,0.01773214340209961,-0.12451291084289551,-0.388577938079834,3.9936206340789795,3.847658634185791,7.479963302612305,-10.779999732971191,-1.3300000429153442,-8.890000343322754,88
11:10:26:843,-0.03367042541503906,-0.25849366188049316,-0.42763185501098633,3.933800458908081,3.649054527282715,7.334001541137695,-5.949999809265137,-4.480000019073486,-8.609999656677246,88
11:10:26:883,-0.028850793838500977,-0.18573808670043945,-0.13919401168823242,3.9314074516296387,3.675375461578369,7.587640762329102,-4.619999885559082,-7.769999980926514,-5.389999866485596,88
11:10:26:924,-0.01925206184387207,0.1308910846710205,0.42272233963012695,3.9361932277679443,4.0247273445129395,8.255237579345703,-0.21000000834465027,-3.640000104904175,-5.670000076293945,88
11:10:26:962,-0.28148388862609863,0.2808248996734619,0.28075075149536133,3.603590488433838,4.244867324829102,8.183453559875488,4.690000057220459,0.42000001668930054,-4.340000152587891,88
11:10:27:2,-0.01270437240600586,0.5615692138671875,0.15377330780029297,3.8691940307617188,4.666004180908203,8.094919204711914,-6.230000019073486,1.190000057220459,-2.6600000858306885,88
11:10:27:44,0.26740407943725586,0.06066083908081055,-0.16794872283935547,4.216153621673584,4.180261135101318,7.731209754943848,-8.260000228881836,4.829999923706055,-1.5399999618530273,88
11:10:27:83,0.12203860282897949,-0.21755313873291016,-0.4923248291015625,4.101297855377197,3.847658634185791,7.28375244140625,-5.880000114440918,4.619999885559082,-1.5399999618530273,88
11:10:27:122,-0.05933809280395508,-0.3903536796569824,-0.36706018447875977,3.9050867557525635,3.5772697925567627,7.317252159118652,-5.320000171661377,1.2599999904632568,-0.07000000029802322,88
11:10:27:164,0.08078432083129883,-0.05194377899169922,0.12940263748168945,4.065405368804932,3.902693748474121,7.846065521240234,2.6600000858306885,-2.7300000190734863,-0.07000000029802322,88
11:10:27:202,-0.2167682647705078,0.32981109619140625,0.10352230072021484,3.713660717010498,4.366901397705078,7.846065521240234,-1.4700000286102295,-1.4700000286102295,-3.009999990463257,88
11:10:27:243,-0.5084097385406494,0.4476175308227539,0.050275325775146484,3.294916868209839,4.596612453460693,7.805387496948242,-3.7100000381469727,-1.3300000429153442,-6.369999885559082,88
11:10:27:285,-0.3205859661102295,0.08435487747192383,0.18953227996826172,3.4025940895080566,4.254438400268555,7.992027282714844,-0.9800000190734863,1.8899999856948853,-8.539999961853027,88
11:10:27:323,-0.1377849578857422,0.12682628631591797,0.421536922454834,3.5509488582611084,4.328616142272949,8.329416275024414,0.7699999809265137,3.7100000381469727,-7.630000114440918,88
11:10:27:364,0.215195894241333,0.3828573226928711,0.2166309356689453,3.957728624343872,4.680361270904541,8.178668022155762,-0.8400000333786011,5.599999904632568,-2.5899999141693115,88
11:10:27:403,0.5645794868469238,-0.11868000030517578,-0.2956881523132324,4.448256969451904,4.149154186248779,7.592426776885986,-7,8.680000305175781,0.9100000262260437,88
11:10:27:443,0.16069650650024414,-0.44716739654541016,-0.5715460777282715,4.084547996520996,3.7088751792907715,7.17368221282959,-7.349999904632568,9.239999771118164,2.6600000858306885,88
11:10:27:485,-0.16049551963806152,-0.3424196243286133,-0.3538675308227539,3.7232320308685303,3.728017807006836,7.302894115447998,-1.2599999904632568,3.2899999618530273,4.550000190734863,88
11:10:27:523,-0.16476726531982422,0.29651355743408203,0.22609901428222656,3.6777684688568115,4.441079139709473,7.939385414123535,2.309999942779541,0.14000000059604645,4.619999885559082,88
11:10:27:564,-0.24092674255371094,0.3980083465576172,0.2440500259399414,3.541377305984497,4.642076015472412,8.018348693847656,-1.3300000429153442,1.9600000381469727,3.1500000953674316,88
11:10:27:603,-0.18508410453796387,0.08869600296020508,0.053585052490234375,3.5509488582611084,4.354937553405762,7.841279983520508,-1.75,3.7799999713897705,1.3300000429153442,88
11:10:27:645,-0.12701058387756348,-0.2046966552734375,-0.19258594512939453,3.5772697925567627,4.01037073135376,7.546962738037109,-1.8899999856948853,5.179999828338623,1.75,88
11:10:27:684,-0.11692237854003906,-0.11590099334716797,-0.12152624130249023,3.5581274032592773,4.070191383361816,7.587640762329102,-2.1700000762939453,3.5,2.7300000190734863,88
11:10:27:725,-0.18542242050170898,0.20207500457763672,0.3028593063354492,3.4432716369628906,4.438685894012451,8.087740898132324,1.6800000667572021,3.7799999713897705,2.799999952316284,88
11:10:27:763,0.08711576461791992,0.4583702087402344,0.404998779296875,3.73758864402771,4.809573650360107,8.291130065917969,-1.8899999856948853,3.7100000381469727,5.599999904632568,88
11:10:27:804,0.11946344375610352,0.0757288932800293,-0.12776565551757812,3.799802303314209,4.445864677429199,7.726424217224121,-3.2200000286102295,8.1899995803833,5.110000133514404,88
11:10:27:843,-0.1590259075164795,-0.31844043731689453,-0.48315000534057617,3.4815566539764404,3.972085475921631,7.2502522468566895,-1.8899999856948853,6.090000152587891,4.409999847412109,88
11:10:27:886,-0.1674201488494873,-0.3121800422668457,-0.19509363174438477,3.431307554244995,3.900300979614258,7.489534854888916,2.309999942779541,0.6299999952316284,5.460000038146973,88
11:10:27:923,0.03069019317626953,0.5217018127441406,0.36843204498291016,3.6370904445648193,4.864608287811279,8.14516830444336,1.399999976158142,-1.3300000429153442,4.340000152587891,88
11:10:27:965,-0.02138996124267578,0.30059146881103516,0.17223262786865234,3.579662799835205,4.718646049499512,7.992027282714844,-5.460000038146973,1.8899999856948853,1.0499999523162842,88
11:10:28:3,-0.11473917961120605,-0.10983610153198242,-0.18189430236816406,3.4576287269592285,4.280759334564209,7.592426776885986,-5.53000020980835,2.309999942779541,-0.5600000023841858,87
11:10:28:45,-0.11284828186035156,-0.3099222183227539,-0.2240004539489746,3.431307554244995,4.00319242477417,7.494320392608643,-4.269999980926514,1.2599999904632568,0.9800000190734863,87
11:10:28:85,0.018834352493286133,0.07557153701782227,0.03328227996826172,3.5676987171173096,4.407578945159912,7.759923934936523,-4.690000057220459,2.870000123977661,1.0499999523162842,87
11:10:28:125,-0.20890092849731445,0.14085674285888672,0.23145151138305664,3.28773832321167,4.508078098297119,8.015955924987793,0.14000000059604645,5.670000076293945,2.7300000190734863,87
11:10:28:165,0.13150358200073242,0.4247093200683594,0.32873058319091797,3.6610186100006104,4.898108005523682,8.195417404174805,-0.2800000011920929,4.690000057220459,5.949999809265137,87
11:10:28:206,0.18560171127319336,0.0009436607360839844,-0.22132253646850586,3.76151704788208,4.474578380584717,7.590033531188965,-4.059999942779541,9.239999771118164,6.159999847412109,87
11:10:28:245,-0.13674306869506836,-0.2978696823120117,-0.4986534118652344,3.404986619949341,4.101297855377197,7.188039302825928,-4.130000114440918,6.650000095367432,5.110000133514404,87
11:10:28:286,-0.0194244384765625,-0.28232336044311523,-0.2610960006713867,3.517449140548706,4.046263217926025,7.36032247543335,1.0499999523162842,-1.75,6.230000019073486,87
11:10:28:325,0.0878305435180664,0.28716230392456055,0.2735161781311035,3.6466617584228516,4.687539577484131,7.963313579559326,0.07000000029802322,-4.409999847412109,3.990000009536743,87
11:10:28:365,-0.04459118843078613,0.25461483001708984,0.2226419448852539,3.5030922889709473,4.718646049499512,7.968099594116211,-6.510000228881836,-3.990000009536743,0.699999988079071,87
11:10:28:405,-0.1715853214263916,-0.15427398681640625,-0.10519695281982422,3.3332018852233887,4.271188735961914,7.613961696624756,-5.670000076293945,-1.0499999523162842,-2.0999999046325684,87
11:10:28:444,-0.22915267944335938,-0.16936206817626953,-0.017158985137939453,3.218346357345581,4.2137603759765625,7.697710037231445,-4.199999809265137,-0.3499999940395355,-1.2599999904632568,87
11:10:28:486,-0.10866594314575195,0.08273601531982422,0.2600116729736328,3.31166672706604,4.486542701721191,8.039883613586426,-0.8400000333786011,1.399999976158142,1.1200000047683716,87
11:10:28:521,0.1676633358001709,0.2365579605102539,0.17163848876953125,3.6299118995666504,4.6995038986206055,7.994420051574707,-2.799999952316284,4.96999979019165,3.5,87
11:10:28:558,0.06713151931762695,-0.1170353889465332,-0.12494230270385742,3.5461630821228027,4.316651821136475,7.6666035652160645,-2.870000123977661,9.9399995803833,5.53000020980835,87
11:10:28:597,-0.0802927017211914,-0.12425661087036133,-0.08272600173950195,3.3786656856536865,4.278366565704346,7.688138484954834,3.1500000953674316,10.5,7.769999980926514,87
11:10:28:644,0.10996317863464355,0.5074148178100586,0.15587329864501953,3.596412420272827,5.036891937255859,7.9657063484191895,0.9800000190734863,7.559999942779541,11.0600004196167,87
11:10:28:685,0.030542850494384766,0.11304998397827148,-0.2447528839111328,3.524627923965454,4.67078971862793,7.503891944885254,-0.42000001668930054,7.769999980926514,7.630000114440918,87
11:10:28:727,-0.2512190341949463,-0.26369762420654297,-0.4523129463195801,3.1800613403320312,4.228117942810059,7.183253765106201,1.9600000381469727,2.6600000858306885,3.5,87
11:10:28:764,-0.09951949119567871,0.060866355895996094,0.24879789352416992,3.3068809509277344,4.567898273468018,7.946564197540283,0.9100000262260437,-5.809999942779541,1.0499999523162842,87
11:10:28:805,0.048639774322509766,0.36646032333374023,0.333035945892334,3.4672000408172607,4.965107440948486,8.11406135559082,-4.130000114440918,-6.720000267028809,-2.940000057220459,87
11:10:28:845,0.017855167388916016,0.013686180114746094,-0.21979236602783203,3.4408791065216064,4.615755081176758,7.506284713745117,-7.139999866485596,-7.210000038146973,-6.579999923706055,87
11:10:28:886,-0.04505801200866699,-0.29724693298339844,-0.29834651947021484,3.366701364517212,4.230510234832764,7.353143692016602,-8.1899995803833,-8.399999618530273,-6.579999923706055,87
11:10:28:924,0.08455181121826172,-0.1439986228942871,-0.030022621154785156,3.517449140548706,4.347758769989014,7.613961696624756,-7.980000019073486,-8.329999923706055,-4.690000057220459,87
11:10:28:966,-0.07018494606018066,0.10876941680908203,0.031495094299316406,3.345165967941284,4.627718925476074,7.683353424072266,-10.149999618530273,-5.320000171661377,-1.9600000381469727,87
11:10:29:5,-0.19397449493408203,0.11955785751342773,0.42144775390625,3.1728827953338623,4.668396949768066,8.178668022155762,-7.909999847412109,-2.870000123977661,1.0499999523162842,87
11:10:29:46,0.1530160903930664,0.32918548583984375,0.6702384948730469,3.5581274032592773,4.960320949554443,8.59501838684082,-9.65999984741211,-2.0299999713897705,5.25,87
11:10:29:85,0.2851245403289795,0.006838321685791016,-0.06488561630249023,3.76151704788208,4.639683246612549,7.843672752380371,-12.949999809265137,3.430000066757202,0.2800000011920929,87
11:10:29:126,0.009874582290649414,-0.272097110748291,-0.5553584098815918,3.4887356758117676,4.292723655700684,7.214360237121582,-18.690000534057617,0.8400000333786011,-4.480000019073486,87
11:10:29:164,0.12849760055541992,-0.37656116485595703,-0.327517032623291,3.6394832134246826,4.094119548797607,7.36032247543335,-8.609999656677246,-7,-5.179999828338623,87
11:10:29:206,0.2980523109436035,-0.02751016616821289,0.17252254486083984,3.8835511207580566,4.436293125152588,7.9034929275512695,-3.430000066757202,-9.170000076293945,-4.340000152587891,87
11:10:29:245,0.06998705863952637,-0.22683382034301758,0.09973287582397461,3.672982692718506,4.180261135101318,7.855636119842529,-12.600000381469727,-7.840000152587891,-4.760000228881836,87
11:10:29:287,-0.07035112380981445,-0.11829662322998047,0.09127187728881836,3.515056610107422,4.2592244148254395,7.869993209838867,-8.539999961853027,-9.65999984741211,-5.039999961853027,87
11:10:29:325,-0.10796618461608887,0.2537574768066406,-0.07437992095947266,3.4504501819610596,4.694717884063721,7.685746192932129,-13.369999885559082,-7.909999847412109,-5.460000038146973,87
11:10:29:366,-0.1897430419921875,-0.0937037467956543,-0.2758150100708008,3.321237564086914,4.323830604553223,7.41535758972168,-12.180000305175781,-6.019999980926514,-8.399999618530273,87
11:10:29:405,0.016660451889038086,-0.2242751121520996,0.16985607147216797,3.531806230545044,4.137190341949463,7.9034929275512695,-8.260000228881836,-2.0299999713897705,-7.349999904632568,87
11:10:29:447,-0.028785228729248047,-0.030107975006103516,0.3675103187561035,3.4791641235351562,4.323830604553223,8.193024635314941,-7.559999942779541,4.269999980926514,-3.569999933242798,87
11:10:29:486,0.2181684970855713,0.37790775299072266,0.3533506393432617,3.7806599140167236,4.826323509216309,8.267202377319336,-4.690000057220459,4.96999979019165,2.1700000762939453,87
11:10:29:526,0.9019527435302734,-0.049897193908691406,0.11231136322021484,4.689932346343994,4.386044025421143,8.054241180419922,-7.630000114440918,13.020000457763672,7.559999942779541,87
11:10:29:565,0.18939828872680664,-0.7041654586791992,-1.106562614440918,4.0247273445129395,3.555734634399414,6.558726787567139,-1.190000057220459,17.010000228881836,7.210000038146973,87
11:10:29:606,-0.06287813186645508,-0.44847726821899414,-0.5655689239501953,3.7567315101623535,3.69930362701416,6.9583282470703125,3.5,4.199999809265137,10.430000305175781,87
11:10:29:645,0.09900975227355957,0.3360939025878906,0.5908150672912598,3.9433717727661133,4.567898273468018,8.262415885925293,0.7699999809265137,-1.5399999618530273,10.640000343322754,87
11:10:29:687,-0.13901782035827637,0.5579280853271484,0.5989933013916016,3.6705896854400635,4.9292144775390625,8.420342445373535,-3.7799999713897705,2.0999999046325684,6.440000057220459,87
11:10:29:725,-0.2318122386932373,0.0634908676147461,-0.04339742660522461,3.5198421478271484,4.450649738311768,7.767102241516113,-4.480000019073486,2.309999942779541,2.799999952316284,87
11:10:29:766,-0.13950777053833008,-0.18848943710327148,-0.3505702018737793,3.5772697925567627,4.151546955108643,7.372286796569824,-7.139999866485596,-0.49000000953674316,1.0499999523162842,87
11:10:29:805,-0.08289241790771484,-0.3690166473388672,-0.22877168655395508,3.613162040710449,3.87876558303833,7.436892509460449,-4.619999885559082,-2.309999942779541,1.0499999523162842,87
11:10:29:847,-0.08545637130737305,-0.2569284439086914,0.06200742721557617,3.589233875274658,3.926621913909912,7.743173599243164,-1.2599999904632568,-1.75,1.3300000429153442,87
11:10:29:886,-0.3574178218841553,0.27110767364501953,0.10320568084716797,3.2279179096221924,4.522434711456299,7.810173511505127,-1.6800000667572021,2.5899999141693115,0.9800000190734863,87
11:10:29:927,-0.2763631343841553,0.3910837173461914,0.6721553802490234,3.239881753921509,4.740181922912598,8.547162055969238,-5.25,5.599999904632568,2.450000047683716,87
11:10:29:965,0.2957592010498047,0.6344618797302246,0.7387218475341797,3.88594388961792,5.142175674438477,8.798408508300781,-2.240000009536743,9.100000381469727,6.929999828338623,87
11:10:30:6,0.5103466510772705,-0.2868475914001465,-0.7298603057861328,4.228117942810059,4.149154186248779,7.1473612785339355,-5.670000076293945,17.219999313354492,7.349999904632568,88
11:10:30:60,-0.007116794586181641,-0.9970951080322266,-1.114138126373291,3.7088751792907715,3.1896328926086426,6.484549045562744,-2.7300000190734863,12.949999809265137,9.869999885559082,88
11:10:30:82,-0.237318754196167,-0.1697998046875,-0.5237722396850586,3.4193434715270996,3.974478244781494,6.943971633911133,5.389999866485596,-0.6299999952316284,10.779999732971191,88
11:10:30:118,-0.10562753677368164,0.5475506782531738,0.591710090637207,3.524627923965454,4.828716278076172,8.207381248474121,7.349999904632568,-4.550000190734863,7.420000076293945,88
11:10:30:159,0.06863832473754883,0.7749500274658203,0.9079046249389648,3.7160534858703613,5.249853134155273,8.7505521774292,1.6100000143051147,0.07000000029802322,3.640000104904175,88
11:10:30:200,-0.22074270248413086,0.06673908233642578,-0.23846197128295898,3.3714869022369385,4.5583271980285645,7.544569969177246,-4.480000019073486,1.9600000381469727,3.640000104904175,88
11:10:30:240,-0.2761354446411133,-0.566828727722168,-0.567878246307373,3.2470602989196777,3.783052444458008,7.073184013366699,-4.550000190734863,-0.14000000059604645,-1.2599999904632568,88
11:10:30:284,-0.18645167350769043,-0.22375202178955078,-0.06570863723754883,3.290131092071533,4.070191383361816,7.558926582336426,-4.550000190734863,-1.3300000429153442,-0.5600000023841858,88
11:10:30:318,-0.2563598155975342,0.1387653350830078,0.34751319885253906,3.156132936477661,4.467400074005127,8.059026718139648,2.6600000858306885,3.5,0.14000000059604645,88
11:10:30:357,-0.3218574523925781,0.3751797676086426,0.5172929763793945,3.0101709365844727,4.797609329223633,8.358129501342773,2.380000114440918,7.980000019073486,1.3300000429153442,88
11:10:30:397,0.012424468994140625,0.5987682342529297,0.5554895401000977,3.3475589752197266,5.170889854431152,8.535198211669922,-0.9100000262260437,10.359999656677246,5.599999904632568,88
11:10:30:438,0.5095608234405518,0.35075902938842773,-0.09351491928100586,3.972085475921631,5.010570526123047,7.862814903259277,-4.760000228881836,15.680000305175781,8.680000305175781,88
11:10:30:478,0.10328173637390137,-0.6152656078338623,-0.8711428642272949,3.5916268825531006,3.8907296657562256,6.867401123046875,-3.990000009536743,17.71000099182129,8.329999923706055,88
11:10:30:518,-0.19302797317504883,-0.5228407382965088,-0.6777715682983398,3.2470602989196777,3.8524444103240967,6.891329765319824,2.940000057220459,6.369999885559082,8.539999961853027,88
11:10:30:558,-0.007024526596069336,0.12537670135498047,0.20817089080810547,3.431307554244995,4.53200626373291,7.829315185546875,4.619999885559082,-1.8899999856948853,7.980000019073486,88
11:10:30:598,-0.17215991020202637,0.5884370803833008,0.635530948638916,3.2231321334838867,5.142175674438477,8.415557861328125,-4.96999979019165,-2.5899999141693115,3.5,88
11:10:30:638,-0.20281267166137695,0.22189617156982422,0.1064300537109375,3.1417763233184814,4.831109046936035,7.913064479827881,-8.1899995803833,-2.6600000858306885,0.14000000059604645,88
11:10:30:679,-0.14693617820739746,-0.12302160263061523,-0.2153940200805664,3.160918712615967,4.455435752868652,7.537391662597656,-11.130000114440918,-4.340000152587891,-1.9600000381469727,88
11:10:30:723,-0.07926368713378906,-0.28792858123779297,-0.2067723274230957,3.208775281906128,4.218546390533447,7.494320392608643,-11.970000267028809,-6.159999847412109,-2.1700000762939453,88
11:10:30:772,0.009330987930297852,-0.07720232009887695,0.02026510238647461,3.2997026443481445,4.409972190856934,7.726424217224121,-6.510000228881836,-7.28000020980835,-1.6800000667572021,88
11:10:30:808,0.07063531875610352,0.02055072784423828,0.1827526092529297,3.3786656856536865,4.5128631591796875,7.934599876403809,-8.119999885559082,-6.300000190734863,-1.8200000524520874,88
11:10:30:842,-0.10046124458312988,0.07578277587890625,0.3988838195800781,3.1824538707733154,4.587040901184082,8.250452041625977,-11.6899995803833,-4.480000019073486,-0.2800000011920929,88
11:10:30:894,0.47093725204467773,0.17739582061767578,0.2808218002319336,3.871586799621582,4.73300313949585,8.202595710754395,-8.470000267028809,-4.900000095367432,3.569999933242798,88
11:10:30:931,0.24466609954833984,-0.20264959335327148,-0.6137876510620117,3.706482172012329,4.302295207977295,7.154539585113525,-7.840000152587891,-1.2599999904632568,0.9100000262260437,88
11:10:30:970,-0.06269192695617676,-0.8033962249755859,-0.7360548973083496,3.383451223373413,3.500699520111084,6.8482584953308105,-8.260000228881836,-6.860000133514404,1.2599999904632568,88
11:10:31:6,0.16998624801635742,0.03875875473022461,0.3051142692565918,3.658626079559326,4.35254430770874,7.9657063484191895,-3.1500000953674316,-12.25,2.309999942779541,89
11:10:31:48,0.1608741283416748,0.6263413429260254,0.5695152282714844,3.689732551574707,5.096712112426758,8.372486114501953,-8.1899995803833,-8.539999961853027,-1.4700000286102295,89
11:10:31:87,0.15549874305725098,0.07993650436401367,0.04213237762451172,3.7232320308685303,4.570291519165039,7.855636119842529,-15.470000267028809,-6.860000133514404,-4.269999980926514,89
11:10:31:126,0.1684267520904541,-0.5428705215454102,-0.32426023483276367,3.778266668319702,3.8117666244506836,7.408178806304932,-10.989999771118164,-5.599999904632568,-4.480000019073486,89
11:10:31:167,0.16536974906921387,-0.27158451080322266,-0.3206644058227539,3.81655216217041,4.015156269073486,7.331608772277832,-7.840000152587891,-7.070000171661377,-3.2899999618530273,89
11:10:31:213,0.22800874710083008,-0.0660409927368164,-0.030649185180664062,3.9361932277679443,4.204189300537109,7.613961696624756,-7.559999942779541,-6.860000133514404,-3.2200000286102295,89
11:10:31:246,0.09435105323791504,0.050537109375,-0.047490596771240234,3.8261232376098633,4.333401679992676,7.58524751663208,-7.28000020980835,-4.550000190734863,-2.6600000858306885,89
11:10:31:289,-0.06426000595092773,0.01745891571044922,-0.0935063362121582,3.651447057723999,4.304687976837158,7.515855312347412,-5.389999866485596,-1.190000057220459,-1.8200000524520874,89
11:10:31:327,-0.26963305473327637,-0.03771781921386719,0.09747838973999023,3.3786656856536865,4.240081787109375,7.731209754943848,-4.760000228881836,3.5,-1.75,89
11:10:31:368,0.24945807456970215,0.4675326347351074,0.7096881866455078,3.9601213932037354,4.862215518951416,8.520841598510742,-3.009999990463257,2.940000057220459,4.059999942779541,89
11:10:31:407,0.6341030597686768,0.1194295883178711,-0.12903976440429688,4.503292083740234,4.543970108032227,7.649853706359863,-3.430000066757202,10.430000305175781,5.039999961853027,89
11:10:31:448,0.03446054458618164,-0.7180161476135254,-0.8880772590637207,3.912264823913574,3.5270204544067383,6.668797016143799,-3.569999933242798,11.0600004196167,5.809999942779541,89
11:10:31:488,-0.033687591552734375,-0.37532997131347656,-0.25678300857543945,3.8356947898864746,3.775874137878418,7.23589563369751,4.690000057220459,2.7300000190734863,9.730000495910645,89
11:10:31:527,-0.1609482765197754,0.4903249740600586,0.5239057540893555,3.6681969165802,4.764110088348389,8.147561073303223,3.569999933242798,2.799999952316284,8.119999885559082,89
11:10:31:568,-0.16321516036987305,0.5511431694030762,0.5320653915405273,3.6251261234283447,4.962714195251465,8.288737297058105,-1.3300000429153442,6.650000095367432,5.53000020980835,89
11:10:31:613,-0.04060196876525879,-0.005107879638671875,0.10405731201171875,3.73758864402771,4.405186176300049,7.886743545532227,-2.380000114440918,9.170000076293945,5.460000038146973,89
11:10:31:643,0.07663130760192871,-0.4099087715148926,-0.3302335739135742,3.8739798069000244,3.8979082107543945,7.369894027709961,-3.990000009536743,7.559999942779541,6.789999961853027,89
11:10:31:688,0.0708763599395752,-0.24944257736206055,-0.22207355499267578,3.88594388961792,3.996013641357422,7.422535419464111,1.3300000429153442,4.829999923706055,7.630000114440918,89
11:10:31:728,-0.09452509880065918,0.10098457336425781,0.061623573303222656,3.696911096572876,4.371686935424805,7.7216386795043945,0.9100000262260437,2.6600000858306885,7.210000038146973,89
11:10:31:767,-0.278531551361084,0.1765003204345703,0.09524059295654297,3.4432716369628906,4.49132776260376,7.77906608581543,-1.399999976158142,3.1500000953674316,5.179999828338623,89
11:10:31:808,-0.5463347434997559,0.18139982223510742,0.30016088485717773,3.0388848781585693,4.541577339172363,8.059026718139648,-0.07000000029802322,4.409999847412109,3.3600001335144043,89
11:10:31:847,0.26929330825805664,0.4648008346557617,0.3970975875854492,3.9218363761901855,4.941178798675537,8.255237579345703,-0.699999988079071,2.940000057220459,6.369999885559082,89
11:10:31:888,0.1618354320526123,-0.20817947387695312,-0.5169382095336914,3.854837417602539,4.216153621673584,7.211967468261719,-5.880000114440918,7.070000171661377,3.8499999046325684,89
11:10:31:928,-0.06770062446594238,-0.7063643932342529,-0.4748063087463379,3.6083762645721436,3.541377305984497,7.135397434234619,-3.0799999237060547,3.009999990463257,4.550000190734863,89
11:10:31:967,-0.13073039054870605,0.12978458404541016,0.2978024482727051,3.5126638412475586,4.409972190856934,7.982456684112549,-0.5600000023841858,-0.42000001668930054,7.139999866485596,89
11:10:32:7,-0.10267019271850586,0.5536785125732422,0.5196371078491211,3.515056610107422,4.972285747528076,8.334200859069824,-4.409999847412109,3.2899999618530273,5.179999828338623,90
11:10:32:49,-0.2218770980834961,-0.004993915557861328,-0.036055564880371094,3.3403804302215576,4.412364959716797,7.769494533538818,-6.789999961853027,6.929999828338623,4.409999847412109,90
11:10:32:88,-0.06264615058898926,-0.2547626495361328,-0.27578306198120117,3.483949899673462,4.098905563354492,7.460821151733398,-1.75,8.119999885559082,5.039999961853027,90
11:10:32:129,0.07813835144042969,-0.035355567932128906,-0.31251096725463867,3.6442689895629883,4.309473514556885,7.345965385437012,0.9800000190734863,5.460000038146973,5.670000076293945,90
11:10:32:167,0.18885159492492676,-0.014884471893310547,0.06775760650634766,3.8021950721740723,4.326223373413086,7.743173599243164,0.14000000059604645,1.9600000381469727,4.900000095367432,90
11:10:32:209,0.05728292465209961,0.0952906608581543,0.16523361206054688,3.6849470138549805,4.460221290588379,7.8819580078125,-1.6100000143051147,1.399999976158142,3.990000009536743,90
11:10:32:248,-0.2968258857727051,0.06857538223266602,-0.013297080993652344,3.25663161277771,4.450649738311768,7.700103282928467,-4.829999923706055,0.42000001668930054,3.1500000953674316,90
11:10:32:289,-0.3963439464569092,-0.01979541778564453,0.01616191864013672,3.058027505874634,4.357330322265625,7.733603000640869,-3.9200000762939453,1.190000057220459,1.190000057220459,90
11:10:32:329,-0.024193763732910156,0.30193042755126953,0.4723515510559082,3.4241292476654053,4.754538536071777,8.307880401611328,-2.309999942779541,-0.07000000029802322,2.5899999141693115,90
11:10:32:368,0.34052538871765137,0.2683439254760742,0.06585693359375,3.8739798069000244,4.78803825378418,7.917850017547607,-9.380000114440918,1.6800000667572021,1.9600000381469727,90
11:10:32:412,0.24753499031066895,-0.4438295364379883,-0.4277925491333008,3.8428730964660645,3.964907169342041,7.317252159118652,-8.75,1.9600000381469727,0.5600000023841858,90
11:10:32:447,0.04488706588745117,-0.5062899589538574,-0.30394935607910156,3.651447057723999,3.775874137878418,7.365108013153076,-3.3600001335144043,-3.1500000953674316,2.870000123977661,90
11:10:32:490,-0.023432254791259766,0.3147287368774414,0.2162623405456543,3.5772697925567627,4.675575256347656,7.939385414123535,-4.130000114440918,-4.130000114440918,3.2200000286102295,90
11:10:32:528,0.0597386360168457,0.42023754119873047,0.2438373565673828,3.675375461578369,4.886143684387207,8.02791976928711,-6.860000133514404,-1.8200000524520874,1.2599999904632568,90
11:10:32:569,0.01716303825378418,-0.12897443771362305,-0.1686391830444336,3.6370904445648193,4.304687976837158,7.573283672332764,-6.510000228881836,0.5600000023841858,-0.14000000059604645,90
11:10:32:608,0.015644550323486328,-0.1797499656677246,-0.26508045196533203,3.6394832134246826,4.208974838256836,7.410572052001953,-4.550000190734863,-0.3499999940395355,1.190000057220459,90
11:10:32:648,0.23074102401733398,0.026569366455078125,0.042531490325927734,3.912264823913574,4.421936511993408,7.728816509246826,-4.059999942779541,-1.4700000286102295,0.8400000333786011,90
11:10:32:690,0.09079432487487793,-0.043829917907714844,0.08188199996948242,3.7950167655944824,4.340579986572266,7.788637638092041,-5.320000171661377,-0.49000000953674316,1.1200000047683716,90
11:10:32:729,-0.057534217834472656,-0.10589122772216797,-0.16994810104370117,3.6323046684265137,4.252045631408691,7.494320392608643,-6.440000057220459,-0.3499999940395355,1.399999976158142,90
11:10:32:769,-0.18002533912658691,-0.029199600219726562,-0.1780719757080078,3.4648072719573975,4.321437358856201,7.441678524017334,-3.990000009536743,0.9800000190734863,1.1200000047683716,90
11:10:32:808,-0.3239607810974121,0.00152587890625,0.27867937088012695,3.239881753921509,4.35254430770874,7.968099594116211,-1.0499999523162842,3.3600001335144043,1.4700000286102295,90
11:10:32:850,0.29213762283325195,0.5869836807250977,0.6249370574951172,3.9290146827697754,5.084747791290283,8.47059154510498,-4.269999980926514,1.1200000047683716,5.320000171661377,90
11:10:32:889,0.5208487510681152,-0.29803037643432617,-0.43420839309692383,4.287938117980957,4.125226020812988,7.302894115447998,-8.050000190734863,8.1899995803833,3.009999990463257,90
11:10:32:929,-0.033171653747558594,-0.8758723735809326,-0.8125309944152832,3.7256247997283936,3.328416109085083,6.721438884735107,-4.619999885559082,4.480000019073486,4.900000095367432,90
11:10:32:968,-0.11650753021240234,-0.06133556365966797,-0.06426191329956055,3.613162040710449,4.127618789672852,7.45364236831665,4.409999847412109,-3.5,7.699999809265137,90
11:10:33:9,-0.17743325233459473,0.5673227310180664,0.5611534118652344,3.507878065109253,4.898108005523682,8.219346046447754,0.42000001668930054,-2.0999999046325684,5.670000076293945,91
11:10:33:49,-0.11897540092468262,0.5074577331542969,0.43552255630493164,3.5365920066833496,4.965107440948486,8.202595710754395,-3.430000066757202,2.1700000762939453,2.940000057220459,91
11:10:33:91,-0.012867450714111328,-0.17979717254638672,-0.1454606056213379,3.6394832134246826,4.232903003692627,7.58524751663208,-5.599999904632568,4.199999809265137,1.8200000524520874,91
11:10:33:128,0.09690451622009277,-0.37163424491882324,-0.40924978256225586,3.7734813690185547,3.948157548904419,7.219145774841309,-3.569999933242798,2.0999999046325684,2.799999952316284,91
11:10:33:171,0.14835119247436523,-0.054196834564208984,0.005681037902832031,3.862015962600708,4.252045631408691,7.635497093200684,-2.450000047683716,-0.49000000953674316,3.7799999713897705,91
11:10:33:208,-0.1091160774230957,0.0810689926147461,0.13088560104370117,3.5772697925567627,4.407578945159912,7.793423175811768,-3.5,0.6299999952316284,2.380000114440918,91
11:10:33:253,-0.20789098739624023,0.26776695251464844,0.33059072494506836,3.4265220165252686,4.661218643188477,8.075776100158691,-3.430000066757202,0.2800000011920929,3.2899999618530273,91
11:10:33:290,0.2758808135986328,0.363525390625,0.030932903289794922,3.9792640209198,4.847858428955078,7.783851623535156,-5.880000114440918,1.2599999904632568,3.2200000286102295,91
11:10:33:331,0.1020205020904541,-0.5686812400817871,-0.4404177665710449,3.830909013748169,3.7734813690185547,7.202396392822266,-7.28000020980835,3.7100000381469727,2.0299999713897705,91
11:10:33:368,-0.07152414321899414,-0.3745462894439697,-0.16473722457885742,3.6394832134246826,3.8739798069000244,7.436892509460449,-1.399999976158142,0.8400000333786011,4.480000019073486,91
11:10:33:411,-0.04956221580505371,0.4526662826538086,0.3467745780944824,3.649054527282715,4.814359188079834,8.0350980758667,-2.380000114440918,1.0499999523162842,4.900000095367432,91
11:10:33:449,-0.033907175064086914,0.34873294830322266,0.19893550872802734,3.6562328338623047,4.797609329223633,7.93699312210083,-5.320000171661377,3.569999933242798,3.569999933242798,91
11:10:33:491,0.06667304039001465,-0.019637584686279297,-0.11841917037963867,3.7734813690185547,4.4243292808532715,7.590033531188965,-5.53000020980835,4.199999809265137,3.1500000953674316,91
11:10:33:528,0.09928059577941895,-0.21096467971801758,-0.2402191162109375,3.830909013748169,4.180261135101318,7.408178806304932,-2.940000057220459,2.450000047683716,3.2200000286102295,91
11:10:33:570,0.023910999298095703,-0.09220170974731445,-0.09071969985961914,3.76151704788208,4.275973796844482,7.534998416900635,-2.1700000762939453,-0.21000000834465027,2.940000057220459,91
11:10:33:608,-0.06509852409362793,0.06789398193359375,0.13416433334350586,3.6562328338623047,4.453042984008789,7.793423175811768,-3.7100000381469727,-1.1200000047683716,1.399999976158142,91
11:10:33:650,-0.09802079200744629,0.07154369354248047,0.18581628799438477,3.5988054275512695,4.474578380584717,7.891529560089111,-5.880000114440918,0.21000000834465027,0.2800000011920929,91
11:10:33:698,-0.04204583168029785,0.061063289642333984,0.04336833953857422,3.6442689895629883,4.479363918304443,7.759923934936523,-7.070000171661377,1.6800000667572021,0.14000000059604645,91
11:10:33:729,-0.09680747985839844,-0.1559748649597168,-0.034218788146972656,3.565305471420288,4.223331928253174,7.6737823486328125,-3.7100000381469727,3.009999990463257,0.699999988079071,91
11:10:33:770,0.08718061447143555,0.22552967071533203,0.27507781982421875,3.7710886001586914,4.661218643188477,8.051848411560059,-3.3600001335144043,1.75,4.130000114440918,91
11:10:33:809,0.25925588607788086,0.19956636428833008,0.055436134338378906,4.0079779624938965,4.685146808624268,7.846065521240234,-6.300000190734863,4.269999980926514,5.670000076293945,91
11:10:33:851,-0.06250596046447754,-0.292111873626709,-0.5873560905456543,3.6705896854400635,4.120440483093262,7.056434154510498,-6.019999980926514,5.880000114440918,3.430000066757202,91
11:10:33:891,-0.3333148956298828,-0.4327726364135742,-0.43159961700439453,3.3164520263671875,3.871586799621582,7.104290962219238,0.14000000059604645,0.7699999809265137,2.6600000858306885,91
11:10:33:930,-0.013969898223876953,0.25103092193603516,0.4472227096557617,3.6323046684265137,4.618147850036621,8.094919204711914,1.8200000524520874,-0.9800000190734863,3.3600001335144043,91
11:10:33:969,0.16685032844543457,0.37310791015625,0.3903207778930664,3.854837417602539,4.833501815795898,8.135597229003906,-2.870000123977661,2.5199999809265137,1.2599999904632568,91
11:10:34:10,0.05116701126098633,-0.14562177658081055,-0.18927955627441406,3.751945972442627,4.278366565704346,7.508677005767822,-5.880000114440918,2.5899999141693115,-0.9800000190734863,90
11:10:34:50,0.10027551651000977,-0.3213229179382324,-0.21076536178588867,3.8261232376098633,4.022334575653076,7.434500217437744,-5.179999828338623,-0.42000001668930054,-0.9800000190734863,90
11:10:34:90,0.022792577743530273,0.005195140838623047,0.07067012786865234,3.754338502883911,4.350151538848877,7.733603000640869,-3.009999990463257,-1.6100000143051147,1.399999976158142,90
11:10:34:131,-0.07939291000366211,0.26258087158203125,0.2709331512451172,3.6323046684265137,4.673182487487793,8.001599311828613,-4.269999980926514,0.07000000029802322,2.1700000762939453,90
11:10:34:170,-0.08457112312316895,0.010982036590576172,-0.026364803314208984,3.6059837341308594,4.4243292808532715,7.697710037231445,-5.809999942779541,2.5899999141693115,2.450000047683716,90
11:10:34:211,-0.11359930038452148,-0.13669824600219727,-0.026834487915039062,3.548555850982666,4.242474555969238,7.6905317306518555,-4.409999847412109,4.340000152587891,3.8499999046325684,90
11:10:34:250,0.06608986854553223,0.17586612701416016,0.1259303092956543,3.744767427444458,4.599005222320557,7.874779224395752,-2.450000047683716,3.7799999713897705,6.650000095367432,90
11:10:34:292,0.23664045333862305,0.1636638641357422,0.016516685485839844,3.974478244781494,4.627718925476074,7.769494533538818,-4.480000019073486,5.039999961853027,6.369999885559082,90
11:10:34:330,0.020857810974121094,-0.2576627731323242,-0.39452314376831055,3.7639100551605225,4.141976356506348,7.259823799133301,-4.550000190734863,3.8499999046325684,6.159999847412109,90
11:10:34:370,-0.07902669906616211,-0.03001880645751953,0.005976676940917969,3.6442689895629883,4.362115383148193,7.661818027496338,-2.799999952316284,-1.1200000047683716,5.949999809265137,90
11:10:34:411,-0.10342073440551758,0.19612503051757812,0.21534967422485352,3.594019651412964,4.6372904777526855,7.925028324127197,-4.199999809265137,-1.6100000143051147,3.9200000762939453,90
11:10:34:450,-0.15930700302124023,0.07650089263916016,-0.028717041015625,3.4983065128326416,4.5367913246154785,7.6737823486328125,-7.349999904632568,-1.0499999523162842,1.190000057220459,90
11:10:34:492,-0.07193183898925781,-0.1704244613647461,-0.14548587799072266,3.5676987171173096,4.247260093688965,7.520641803741455,-6.860000133514404,-0.9100000262260437,-0.42000001668930054,90
11:10:34:530,-0.026917457580566406,-0.2205667495727539,-0.03981828689575195,3.6059837341308594,4.141976356506348,7.616354942321777,-5.809999942779541,-0.49000000953674316,-0.49000000953674316,90
11:10:34:570,0.12969255447387695,0.13939857482910156,0.1232004165649414,3.7950167655944824,4.5367913246154785,7.810173511505127,-4.550000190734863,0.21000000834465027,-0.3499999940395355,90
11:10:34:610,-0.0130157470703125,-0.09713506698608398,-0.02778148651123047,3.649054527282715,4.275973796844482,7.652246475219727,-5.320000171661377,3.3600001335144043,-0.9100000262260437,90
11:10:34:652,-0.24969482421875,-0.08536481857299805,0.19217205047607422,3.34995174407959,4.266402721405029,7.920242786407471,-4.409999847412109,3.7100000381469727,1.6100000143051147,90
11:10:34:691,0.43769192695617676,0.48684263229370117,0.5710458755493164,4.146761417388916,4.960320949554443,8.441878318786621,-3.9200000762939453,1.6100000143051147,5.25,90
11:10:34:732,0.3271825313568115,-0.11780405044555664,-0.34140920639038086,4.118047714233398,4.326223373413086,7.444070816040039,-7.490000247955322,6.650000095367432,3.990000009536743,90
11:10:34:770,-0.13641977310180664,-0.7872047424316406,-0.6617212295532227,3.620340585708618,3.460021495819092,6.9583282470703125,-3.7100000381469727,2.0299999713897705,5.25,90
11:10:34:811,-0.15699243545532227,-0.019115447998046875,0.1061563491821289,3.5605196952819824,4.223331928253174,7.752745151519775,1.6100000143051147,-3.7799999713897705,6.369999885559082,90
11:10:34:851,-0.07773733139038086,0.6317272186279297,0.49840497970581055,3.620340585708618,5.032106399536133,8.2695951461792,-0.699999988079071,-3.9200000762939453,3.430000066757202,90
11:10:34:892,-0.12153196334838867,0.23929977416992188,0.15561294555664062,3.5461630821228027,4.6995038986206055,7.9657063484191895,-6.230000019073486,-1.1200000047683716,-0.3499999940395355,90
11:10:34:930,0.09802865982055664,-0.2526683807373047,-0.16839122772216797,3.7902309894561768,4.144368648529053,7.599604606628418,-8.119999885559082,-2.309999942779541,-0.7699999809265137,90
11:10:34:971,0.15499329566955566,-0.2576479911804199,-0.30699634552001953,3.88594388961792,4.074976921081543,7.384250640869141,-6.720000267028809,-3.7100000381469727,-1.8200000524520874,90
11:10:35:10,0.0895380973815918,-0.15251874923706055,-0.00057220458984375,3.8428730964660645,4.141976356506348,7.6905317306518555,-5.53000020980835,-5.880000114440918,-2.450000047683716,90
11:10:35:52,0.012288570404052734,0.13066673278808594,0.20819616317749023,3.768695831298828,4.457828521728516,7.951349258422852,-7.139999866485596,-5.320000171661377,-2.450000047683716,90
11:10:35:91,-0.13182425498962402,0.1102762222290039,-0.030611515045166016,3.5916268825531006,4.465007305145264,7.704888820648193,-9.59000015258789,-2.0299999713897705,-3.5,90
11:10:35:132,-0.13991618156433105,-0.05343437194824219,-0.10297346115112305,3.548555850982666,4.287938117980957,7.606783390045166,-8.539999961853027,-0.42000001668930054,-4.340000152587891,90
11:10:35:170,0.17520570755004883,0.08933639526367188,0.18944597244262695,3.9074790477752686,4.453042984008789,7.946564197540283,-5.53000020980835,0.42000001668930054,-1.1200000047683716,90
11:10:35:211,0.3985896110534668,0.1020970344543457,-0.12026786804199219,4.230510234832764,4.49132776260376,7.606783390045166,-5.740000247955322,3.009999990463257,-0.6299999952316284,90
11:10:35:251,0.0795893669128418,-0.5174851417541504,-0.37952470779418945,3.9314074516296387,3.7423744201660156,7.252645492553711,-4.690000057220459,3.7100000381469727,-0.14000000059604645,90
11:10:35:293,-0.1047830581665039,-0.26850414276123047,0.03328990936279297,3.720839262008667,3.924229145050049,7.6737823486328125,-0.49000000953674316,1.75,3.640000104904175,90
11:10:35:331,-0.0895693302154541,0.5068721771240234,0.4228830337524414,3.713660717010498,4.826323509216309,8.169095993041992,-1.8200000524520874,3.2899999618530273,4.690000057220459,90
11:10:35:372,-0.05634140968322754,0.1528158187866211,-0.057944297790527344,3.7328033447265625,4.510470867156982,7.6737823486328125,-4.480000019073486,6.720000267028809,3.569999933242798,90
11:10:35:410,0.06978225708007812,-0.3007986545562744,-0.21481037139892578,3.8763725757598877,3.981656789779663,7.463213920593262,-4.130000114440918,6.579999923706055,4.96999979019165,90
11:10:35:452,0.08453965187072754,-0.12386941909790039,-0.14696311950683594,3.912264823913574,4.127618789672852,7.494320392608643,-0.14000000059604645,5.599999904632568,7.28000020980835,90
11:10:35:492,-0.10465121269226074,0.08658742904663086,-0.014200210571289062,3.696911096572876,4.35972261428833,7.623533248901367,0.6299999952316284,4.829999923706055,7.699999809265137,90
11:10:35:532,-0.18134832382202148,0.1209554672241211,0.10158109664916992,3.5748770236968994,4.4243292808532715,7.764709949493408,0.9100000262260437,4.550000190734863,6.789999961853027,90
11:10:35:571,-0.3652181625366211,0.046993255615234375,0.027665138244628906,3.2997026443481445,4.362115383148193,7.697710037231445,0.3499999940395355,6.650000095367432,4.340000152587891,90
11:10:35:612,0.05047750473022461,0.41278934478759766,0.561953067779541,3.728017807006836,4.831109046936035,8.372486114501953,-0.9800000190734863,3.2899999618530273,5.53000020980835,90
11:10:35:651,0.2911496162414551,0.10052013397216797,-0.08834409713745117,4.041477203369141,4.543970108032227,7.700103282928467,-5.880000114440918,5.809999942779541,4.760000228881836,90
11:10:35:693,-0.07527589797973633,-0.48811841011047363,-0.509040355682373,3.6562328338623047,3.8333017826080322,7.152146816253662,-5.460000038146973,4.199999809265137,3.8499999046325684,90
11:10:35:731,-0.1884760856628418,-0.3713521957397461,-0.2445201873779297,3.4959137439727783,3.8572301864624023,7.355536937713623,0.49000000953674316,-0.9800000190734863,4.96999979019165,90
11:10:35:772,-0.16800928115844727,0.2503957748413086,0.26189136505126953,3.4743783473968506,4.541577339172363,7.927421569824219,1.0499999523162842,-1.3300000429153442,3.9200000762939453,90
11:10:35:811,-0.1324930191040039,0.3324003219604492,0.2707686424255371,3.476771354675293,4.706681728363037,8.00399112701416,1.75,1.5399999618530273,2.940000057220459,90
11:10:35:852,0.11797380447387695,0.03812408447265625,-0.11838006973266602,3.7567315101623535,4.421936511993408,7.58524751663208,-3.640000104904175,2.5899999141693115,1.6100000143051147,90
11:10:35:892,0.019722938537597656,-0.289182186126709,-0.2669868469238281,3.6634113788604736,4.022334575653076,7.369894027709961,0.9100000262260437,2.450000047683716,1.1200000047683716,90
11:10:35:933,-0.13544797897338867,-0.16817522048950195,-0.22124671936035156,3.4743783473968506,4.101297855377197,7.36032247543335,9.520000457763672,2.309999942779541,1.8200000524520874,90
11:10:35:971,-0.3725259304046631,0.3727383613586426,0.24796819686889648,3.1441688537597656,4.735395908355713,7.891529560089111,5.389999866485596,1.8899999856948853,0.07000000029802322,90
11:10:36:12,0.38536930084228516,0.7097563743591309,0.9659910202026367,3.998406410217285,5.249853134155273,8.85105037689209,6.159999847412109,-2.7300000190734863,3.3600001335144043,89
11:10:36:56,1.5181069374084473,-0.14621305465698242,1.2379579544067383,5.5106706619262695,4.357330322265625,9.432506561279297,3.3600001335144043,-0.6299999952316284,5.320000171661377,89
11:10:36:92,1.1283440589904785,-1.832146167755127,2.3973464965820312,5.402993679046631,2.2133607864379883,11.191231727600098,30.380001068115234,14,10.220000267028809,89
11:10:36:132,-0.1788806915283203,-3.037322759628296,2.7046375274658203,4.051048755645752,0.24885354936122894,12.174681663513184,142.24000549316406,14.420000076293945,29.049999237060547,89
11:10:36:171,-0.032077789306640625,4.480614185333252,1.9856843948364258,4.1898322105407715,8.886943817138672,11.952149391174316,162.1199951171875,24.780000686645508,48.22999954223633,89
11:10:36:212,-0.2553730010986328,5.558091640472412,0.7213878631591797,3.902693748474121,11.353943824768066,10.868200302124023,-116.34000396728516,133.49000549316406,17.989999771118164,89
11:10:36:251,-1.530879259109497,2.1378774642944336,0.12343120574951172,2.2444677352905273,8.468198776245117,10.301101684570312,-94.01000213623047,197.9600067138672,-87.91999816894531,89
11:10:36:294,-3.3150734901428223,4.371121406555176,-1.187636375427246,-0.3684946894645691,11.794222831726074,8.693124771118164,-21.90999984741211,229.38999938964844,-146.08999633789062,89
11:10:36:332,-3.995867967605591,3.8510351181030273,-2.512144088745117,-2.0482561588287354,12.236895561218262,6.740581512451172,-38.92000198364258,212.30999755859375,-187.6699981689453,89
11:10:36:373,-3.7269439697265625,-0.4452362060546875,-3.5296363830566406,-2.7110681533813477,7.829315185546875,4.840680122375488,-47.31999969482422,176.25999450683594,-224.83999633789062,89
11:10:36:411,-3.5807178020477295,-2.1441054344177246,-4.489113807678223,-3.460021495819092,5.594419479370117,2.7589242458343506,26.530000686645508,145.1800079345703,-252.49000549316406,89
11:10:36:451,-3.38333797454834,-2.4599313735961914,-3.407522201538086,-4.108476161956787,4.663610935211182,2.988635540008545,69.6500015258789,98.84000396728516,-254.10000610351562,89
11:10:36:493,-2.9670097827911377,-3.013129711151123,-2.224482536315918,-4.433900356292725,3.3571300506591797,3.6155548095703125,90.58000183105469,61.880001068115234,-232.0500030517578,89
11:10:36:531,-2.1075258255004883,-3.312119483947754,-0.7726860046386719,-4.101297855377197,2.2301106452941895,4.874179840087891,110.45999908447266,31.149999618530273,-202.9300079345703,89
11:10:36:573,-1.1404571533203125,-4.0126471519470215,-0.7521471977233887,-3.4193434715270996,0.5264209508895874,4.706681728363037,87.5,5.949999809265137,-175.83999633789062,89
11:10:36:612,-1.0253067016601562,-1.8586513996124268,-0.5576896667480469,-3.5605196952819824,2.2157537937164307,4.761716842651367,94.29000091552734,3.2200000286102295,-145.25,89
11:10:36:653,-0.7781319618225098,-1.8123449087142944,0.33869457244873047,-3.507878065109253,1.8089739084243774,5.742774486541748,79.02999877929688,3.2200000286102295,-118.86000061035156,89
11:10:36:693,-0.8483879566192627,-0.7071437835693359,0.45663881301879883,-3.7902309894561768,2.737389087677002,5.974878311157227,53.27000045776367,11.40999984741211,-99.61000061035156,89
11:10:36:733,-1.8598074913024902,-2.0856359004974365,0.3270254135131836,-5.266602516174316,0.8374879360198975,5.927021503448486,-27.440000534057617,0.9800000190734863,-54.810001373291016,89
11:10:36:773,-2.772313117980957,-1.7948498725891113,-0.3164854049682617,-6.872186660766602,0.6795615553855896,5.204389572143555,-143.22000122070312,-0.42000001668930054,-37.939998626708984,89
11:10:36:812,-2.977810859680176,-3.4860501289367676,-0.2359604835510254,-7.822136878967285,-1.8831514120101929,5.225924491882324,-147.97999572753906,-15.890000343322754,-47.18000030517578,89
11:10:36:854,-2.724900722503662,-2.830953598022461,-0.19451141357421875,-8.250452041625977,-1.935793399810791,5.218745708465576,-91.06999969482422,9.170000076293945,-43.81999969482422,89
11:10:36:955,-2.4306888580322266,-3.0457801818847656,-0.8925981521606445,-8.563912391662598,-2.912065029144287,4.29750919342041,-195.86000061035156,-2.0999999046325684,-37.939998626708984,89
11:10:36:961,-1.554041862487793,-4.519337177276611,-0.8557333946228027,-8.075776100158691,-5.515456199645996,4.120440483093262,-163.02999877929688,-14,-51.939998626708984,89
11:10:36:965,-0.6766133308410645,-2.667912006378174,0.1270589828491211,-7.3675007820129395,-4.3310089111328125,5.134997367858887,-66.77999877929688,15.329999923706055,-48.58000183105469,89
11:10:37:9,-0.2407522201538086,-2.589923143386841,-0.6161999702453613,-6.991827487945557,-4.900500774383545,4.2376885414123535,-177.30999755859375,0.07000000029802322,-23.309999465942383,89
11:10:37:53,-0.29022884368896484,-5.171121597290039,-3.006380796432495,-7.113861560821533,-8.774479866027832,1.0959126949310303,-148.75,-5.389999866485596,-17.71000099182129,89
11:10:37:96,-0.6418342590332031,-3.0151429176330566,-0.695671796798706,-7.625925540924072,-7.372286796569824,3.232703685760498,28.280000686645508,3.3600001335144043,-10.989999771118164,89
11:10:37:133,0.22352218627929688,-0.3428010940551758,0.26276493072509766,-6.704688549041748,-4.785645484924316,4.256831645965576,39.40999984741211,2.940000057220459,-8.890000343322754,89
11:10:37:177,0.16541767120361328,-0.6532635688781738,0.02452850341796875,-6.721438884735107,-5.259423732757568,4.0247273445129395,-81.12999725341797,-3.990000009536743,-9.65999984741211,89
11:10:37:213,-0.1031193733215332,-1.939162254333496,-0.6101679801940918,-7.015756130218506,-7.030113220214844,3.2374887466430664,-118.16000366210938,-5.599999904632568,-16.940000534057617,89
11:10:37:256,0.7023506164550781,0.5256404876708984,-0.4613344669342041,-6.034698486328125,-4.433900356292725,3.270988702774048,-108.8499984741211,-0.21000000834465027,-25.059999465942383,89
11:10:37:293,0.3532261848449707,-1.870854377746582,-2.2680115699768066,-6.295516490936279,-7.29810905456543,0.8973084688186646,-87.29000091552734,-8.890000343322754,-15.75,89
11:10:37:336,0.5486631393432617,0.7583127021789551,-0.3691444396972656,-5.962913990020752,-4.479363918304443,2.7038896083831787,-17.360000610351562,3.9200000762939453,-27.790000915527344,89
11:10:37:373,0.4389305114746094,1.050757884979248,-1.0495333671569824,-5.962913990020752,-3.924229145050049,1.7611174583435059,-71.88999938964844,4.059999942779541,-30.59000015258789,89
11:10:37:414,0.4679136276245117,-2.6854567527770996,-1.7412421703338623,-5.816952228546143,-8.331808090209961,0.6340980529785156,-47.11000061035156,8.050000190734863,-15.75,89
11:10:37:453,0.24607563018798828,-2.2000508308410645,-2.032356023788452,-5.97727108001709,-8.396414756774902,-0.16510476171970367,-26.25,21.139999389648438,-16.59000015258789,89
11:10:37:495,-0.02710723876953125,-2.5487146377563477,-1.5435717105865479,-6.257230758666992,-9.382257461547852,-0.062213387340307236,-23.8700008392334,22.049999237060547,-5.110000133514404,89
11:10:37:533,0.27693796157836914,-1.979630470275879,-0.9745182394981384,-5.883951187133789,-9.308080673217773,0.2632104754447937,34.15999984741211,23.799999237060547,9.3100004196167,89
11:10:37:574,0.34406280517578125,-0.7758865356445312,-1.4936327934265137,-5.730810642242432,-8.298308372497559,-0.6293123364448547,82.52999877929688,34.93000030517578,41.02000045776367,89
11:10:37:613,0.47241926193237305,0.2655916213989258,-1.3059332370758057,-5.484349250793457,-7.190432548522949,-0.7680960297584534,82.18000030517578,14.069999694824219,59.290000915527344,89
11:10:37:655,1.1991519927978516,1.0796327590942383,-0.0416753888130188,-4.457828521728516,-6.106483459472656,0.48574298620224,53.47999954223633,-20.719999313354492,76.6500015258789,89
11:10:37:694,1.1086335182189941,1.5911245346069336,-0.3396216034889221,-4.271188735961914,-5.197210788726807,0.10289137810468674,19.530000686645508,-49.4900016784668,98.13999938964844,89
11:10:37:734,1.4592700004577637,2.094116687774658,-0.5971211194992065,-3.555734634399414,-4.170689582824707,-0.3038884699344635,2.6600000858306885,-93.0999984741211,118.6500015258789,89
11:10:37:773,1.3090713024139404,2.215113878250122,0.004696160554885864,-3.3786656856536865,-3.4959137439727783,0.2991028428077698,7.559999942779541,-117.94999694824219,141.5399932861328,89
11:10:37:815,1.07405686378479,2.3559398651123047,0.220068097114563,-3.345165967941284,-2.7661027908325195,0.5694918036460876,18.059999465942383,-145.60000610351562,165.8300018310547,89
11:10:37:853,1.1444697380065918,2.755739212036133,2.208996534347534,-2.988635540008545,-1.6773687601089478,3.1106693744659424,18.479999542236328,-163.02999877929688,198.10000610351562,89
11:10:37:896,1.244828224182129,2.7348408699035645,2.5309860706329346,-2.5770699977874756,-1.0145567655563354,4.065405368804932,-15.539999961853027,-202.08999633789062,241.00999450683594,89
11:10:37:933,1.9721342325210571,3.4570257663726807,0.7747783660888672,-1.356730580329895,0.5718846321105957,2.502892255783081,53.76000213623047,-247.3800048828125,266,89
11:10:37:974,3.8384461402893066,3.5179238319396973,4.09420108795166,1.4691929817199707,1.5122638940811157,6.845865249633789,187.60000610351562,-283.9200134277344,306.25,89
11:10:38:64,5.411894798278809,7.226703643798828,5.404016017913818,4.395615100860596,7.027719974517822,9.506684303283691,133.6300048828125,-265.1600036621094,332.2900085449219,90
11:10:38:91,5.688639163970947,8.398154258728027,4.560580730438232,6.094519138336182,10.29870891571045,9.803394317626953,92.05000305175781,-247.8699951171875,281.82000732421875,90
11:10:38:103,5.80666446685791,5.393856048583984,2.6932497024536133,7.664210796356201,8.642874717712402,8.609375953674316,69.86000061035156,-227.7100067138672,290.5,90
11:10:38:128,7.715801239013672,4.493111610412598,2.790132999420166,11.502297401428223,8.865407943725586,9.403792381286621,112.69999694824219,-224.13999938964844,213.7100067138672,90
11:10:38:168,6.055872440338135,3.697859287261963,1.2022356986999512,11.35633659362793,8.994620323181152,8.116454124450684,190.47000122070312,-183.39999389648438,178.0800018310547,90
11:10:38:211,5.995166301727295,6.719804763793945,2.1103434562683105,12.794422149658203,13.696516990661621,9.55214786529541,294.2099914550781,-148.39999389648438,114.80000305175781,90
11:10:38:251,4.256312370300293,5.54429817199707,-0.1417560577392578,12.119646072387695,13.907085418701172,7.264609336853027,211.9600067138672,-63.70000076293945,62.369998931884766,90
11:10:38:297,-0.05592823028564453,2.643692970275879,-3.1838748455047607,7.793423175811768,11.667403221130371,3.4265220165252686,104.09000396728516,-31.360000610351562,4.900000095367432,90
11:10:38:335,-0.22851133346557617,1.7416744232177734,-2.7193830013275146,7.563712120056152,11.200803756713867,3.211168050765991,31.920000076293945,-17.290000915527344,-38.150001525878906,90
11:10:38:377,-1.3083925247192383,-0.9439706802368164,-1.3026046752929688,6.15673303604126,8.279166221618652,4.302295207977295,-68.04000091552734,12.739999771118164,-25.6200008392334,90
11:10:38:415,-1.3185386657714844,-2.1200428009033203,-1.4861915111541748,5.816952228546143,6.573083877563477,3.7471601963043213,-40.529998779296875,0.21000000834465027,-19.670000076293945,90
11:10:38:456,0.0018391609191894531,-0.7408199310302734,-2.0503690242767334,7.137789726257324,7.767102241516113,2.6703903675079346,-32.970001220703125,3.430000066757202,-24.850000381469727,90
11:10:38:496,-0.5440917015075684,-0.985079288482666,-2.095889091491699,6.455835819244385,7.276573657989502,2.100898265838623,-60.130001068115234,20.15999984741211,-23.520000457763672,90
11:10:38:533,-0.6439275741577148,-2.2562994956970215,-1.8738799095153809,6.1950178146362305,5.441278457641602,1.8544375896453857,-69.79000091552734,22.68000030517578,-27.020000457763672,90
11:10:38:574,-0.340944766998291,-0.8268537521362305,0.8362908363342285,6.412764549255371,6.664010524749756,4.773681163787842,-37.310001373291016,24.71000099182129,-26.46000099182129,90
11:10:38:615,-0.45078182220458984,-0.05657672882080078,-0.1502699851989746,6.190232276916504,7.420143127441406,3.7495529651641846,-50.61000061035156,57.540000915527344,-25.479999542236328,90
11:10:38:654,-0.9234175682067871,1.6163148880004883,0.10758066177368164,5.48674201965332,9.497113227844238,4.034298896789551,-54.880001068115234,73.5,-45.709999084472656,90
11:10:38:696,-1.4986944198608398,1.0977973937988281,0.5742006301879883,4.5367913246154785,9.253045082092285,4.644468784332275,-60.54999923706055,90.37000274658203,-79.87000274658203,90
11:10:38:735,-1.4822654724121094,2.061248779296875,0.6661005020141602,4.182653903961182,10.73180866241455,4.902893543243408,-22.610000610351562,71.81999969482422,-121.0999984741211,90
11:10:38:775,-1.5992918014526367,1.5092582702636719,-0.05288267135620117,3.665804386138916,10.557132720947266,4.170689582824707,-38.08000183105469,60.54999923706055,-153.50999450683594,90
11:10:38:814,-1.7024846076965332,0.5565586090087891,-0.7429244518280029,3.136990547180176,9.743573188781738,3.294916868209839,-38.63999938964844,40.459999084472656,-179.8300018310547,90
11:10:38:856,-1.8290667533874512,-0.12520122528076172,-0.7493946552276611,2.5531415939331055,9.030512809753418,3.10109806060791,-37.52000045776367,24.290000915527344,-195.7899932861328,90
11:10:38:895,-1.939903736114502,-0.605525016784668,-0.2453780174255371,1.9573287963867188,8.398807525634766,3.5437703132629395,-31.780000686645508,4.480000019073486,-199.77999877929688,90
