time,ax,ay,az,ax_g,ay_g,az_g,rot_x,rot_y,rot_,heart
11:13:5:201,,,,-0.21296121180057526,-5.737988471984863,8.178668022155762,-44.72999954223633,38.9900016784668,22.1200008392334,83
11:13:5:219,-0.1362951695919037,-3.6723124980926514,5.234347343444824,-0.21296121180057526,-5.737988471984863,8.178668022155762,-9.3100004196167,-1.6100000143051147,-10.149999618530273,83
11:13:5:256,0.2795582413673401,-1.7950379848480225,4.5148162841796875,0.27278175950050354,-4.309473514556885,8.587841033935547,-3.2200000286102295,7.210000038146973,1.8899999856948853,83
11:13:5:295,0.22938938438892365,-1.4436872005462646,3.6922507286071777,0.2799602448940277,-4.319044589996338,8.688338279724121,-2.1700000762939453,0.42000001668930054,-0.21000000834465027,83
11:13:5:335,0.36536604166030884,-1.1855783462524414,3.053342819213867,0.5072783827781677,-4.357330322265625,8.812766075134277,-3.5,0.8400000333786011,-0.9100000262260437,83
11:13:5:375,0.31143540143966675,-1.023118257522583,2.3507895469665527,0.5312066078186035,-4.450649738311768,8.69791030883789,-4.130000114440918,1.8899999856948853,-0.14000000059604645,83
11:13:5:420,0.18597781658172607,-0.6251547336578369,1.8882884979248047,0.45224347710609436,-4.208974838256836,8.707481384277344,-3.3600001335144043,2.870000123977661,0.7699999809265137,83
11:13:5:461,0.18515315651893616,-0.5154383182525635,1.525944709777832,0.4977070987224579,-4.228117942810059,8.72662353515625,-4.199999809265137,1.5399999618530273,0.6299999952316284,83
11:13:5:499,0.10983738303184509,-0.5118918418884277,1.1824707984924316,0.4498506784439087,-4.35254430770874,8.678767204284668,-4.829999923706055,1.9600000381469727,1.9600000381469727,83
11:13:5:555,0.08786991238594055,-0.30614352226257324,0.9153485298156738,0.4498506784439087,-4.223331928253174,8.640481948852539,-2.5199999809265137,2.0999999046325684,2.240000009536743,83
11:13:5:579,0.09135276079177856,-0.42485475540161133,0.7227087020874023,0.47617170214653015,-4.448256969451904,8.628519058227539,-5.880000114440918,1.1200000047683716,0.699999988079071,83
11:13:5:630,0.13050991296768188,-0.20397138595581055,0.6643085479736328,0.5479563474655151,-4.278366565704346,8.73619556427002,-2.7300000190734863,2.380000114440918,1.3300000429153442,83
11:13:5:670,-0.020018845796585083,-0.12872028350830078,0.42807674407958984,0.3924228847026825,-4.23529577255249,8.606983184814453,-3.5,3.569999933242798,2.240000009536743,83
11:13:5:707,0.05672675371170044,-0.11829042434692383,0.38074684143066406,0.4833501875400543,-4.254438400268555,8.654839515686035,-2.5199999809265137,3.569999933242798,2.0299999713897705,83
11:13:5:745,-0.02736043930053711,-0.1712026596069336,0.30268287658691406,0.3924228847026825,-4.350151538848877,8.652446746826172,-5.179999828338623,3.3600001335144043,1.190000057220459,83
11:13:5:785,0.024053871631622314,-0.07762002944946289,0.27277469635009766,0.4498506784439087,-4.275973796844482,8.6907320022583,-2.450000047683716,1.399999976158142,1.8200000524520874,83
11:13:5:827,0.026900112628936768,-0.10038137435913086,0.2220478057861328,0.45942193269729614,-4.323830604553223,8.695517539978027,-3.9200000762939453,3.9200000762939453,3.0799999237060547,83
11:13:5:864,-0.043564677238464355,0.02689361572265625,0.16423797607421875,0.37806597352027893,-4.1898322105407715,8.678767204284668,-4.340000152587891,3.0799999237060547,2.799999952316284,83
11:13:5:906,0.030233025550842285,-0.0014562606811523438,0.11416244506835938,0.45942193269729614,-4.218546390533447,8.657232284545898,-2.799999952316284,2.0299999713897705,2.309999942779541,83
11:13:5:944,0.0050438642501831055,-0.1351633071899414,0.1525859832763672,0.43549373745918274,-4.386044025421143,8.733802795410156,-5.110000133514404,3.1500000953674316,3.0799999237060547,83
11:13:5:999,-0.00553622841835022,0.06415271759033203,0.12015438079833984,0.42352959513664246,-4.170689582824707,8.731410026550293,-3.1500000953674316,3.009999990463257,3.2899999618530273,83
11:13:6:24,-0.04654264450073242,-0.07884740829467773,0.13057899475097656,0.37088751792907715,-4.333401679992676,8.774479866027832,-3.0799999237060547,2.7300000190734863,3.9200000762939453,82
11:13:6:66,-0.05254819989204407,-0.04202127456665039,0.0489501953125,0.3517449200153351,-4.3070807456970215,8.70508861541748,-3.569999933242798,2.5199999809265137,3.430000066757202,82
11:13:6:105,0.03836029767990112,0.0008397102355957031,0.0027894973754882812,0.45224347710609436,-4.264009952545166,8.659625053405762,-4.130000114440918,3.0799999237060547,2.240000009536743,82
11:13:6:146,-0.015253961086273193,-0.05101299285888672,0.03860282897949219,0.39481574296951294,-4.328616142272949,8.70508861541748,-4.059999942779541,4.199999809265137,2.7300000190734863,82
11:13:6:185,-0.004546165466308594,-0.042724609375,0.07682514190673828,0.4043869972229004,-4.3310089111328125,8.762516975402832,-4.96999979019165,3.009999990463257,2.6600000858306885,82
11:13:6:227,-0.05340760946273804,-0.04375123977661133,0.10548782348632812,0.34217363595962524,-4.342973232269287,8.817551612854004,-4.199999809265137,3.430000066757202,3.009999990463257,82
11:13:6:265,-0.015926480293273926,0.028169631958007812,0.0039920806884765625,0.3756731450557709,-4.264009952545166,8.717053413391113,-4.269999980926514,2.7300000190734863,2.5199999809265137,82
11:13:6:306,0.017886966466903687,0.01487874984741211,0.0070209503173828125,0.413958340883255,-4.273581027984619,8.721837997436523,-4.619999885559082,3.2899999618530273,2.240000009536743,82
11:13:6:345,-0.033546894788742065,-0.049353599548339844,-0.028840065002441406,0.35413774847984314,-4.350151538848877,8.678767204284668,-3.990000009536743,4.550000190734863,2.380000114440918,82
11:13:6:386,-0.026837527751922607,0.021773338317871094,-0.028814315795898438,0.35413774847984314,-4.273581027984619,8.671588897705078,-4.199999809265137,4.340000152587891,-0.07000000029802322,82
11:13:6:427,-0.059755176305770874,0.049961090087890625,-0.028794288635253906,0.30628129839897156,-4.232903003692627,8.664410591125488,-3.640000104904175,5.740000247955322,0.2800000011920929,82
11:13:6:465,-0.13586004078388214,0.22373723983764648,0.061191558837890625,0.19621144235134125,-4.00319242477417,8.769694328308105,-1.399999976158142,5.880000114440918,-1.190000057220459,82
11:13:6:507,-0.026374906301498413,0.0009641647338867188,0.1159524917602539,0.2991028428077698,-4.225724697113037,8.853443145751953,-1.8899999856948853,2.240000009536743,-1.190000057220459,82
11:13:6:545,-0.11681284010410309,-0.060484886169433594,0.18656063079833984,0.17946170270442963,-4.302295207977295,8.970691680908203,-2.1700000762939453,5.179999828338623,2.7300000190734863,82
11:13:6:586,0.35640040040016174,0.08943843841552734,0.26984691619873047,0.7417750358581543,-4.130012035369873,9.121439933776855,-3.2899999618530273,6.860000133514404,-0.8400000333786011,82
11:13:6:626,-0.6988083720207214,-0.15050268173217773,-0.19951725006103516,-0.48813584446907043,-4.407578945159912,8.60219669342041,-0.8400000333786011,45.709999084472656,17.219999313354492,82
11:13:6:665,-0.2680794298648834,0.2126781940460205,0.23855304718017578,-0.12442677468061447,-3.9912283420562744,9.099905014038086,0.9100000262260437,9.449999809265137,-5.880000114440918,82
11:13:6:708,-0.13215045630931854,-0.023197174072265625,-0.09821128845214844,-0.02153540588915348,-4.232903003692627,8.738588333129883,2.5899999141693115,4.829999923706055,-3.2899999618530273,82
11:13:6:745,-0.12103442847728729,0.02929830551147461,-0.051769256591796875,-0.0406779870390892,-4.1730828285217285,8.772088050842285,-1.8899999856948853,5.039999961853027,-1.190000057220459,82
11:13:6:787,-0.054713860154151917,-0.005274772644042969,0.000698089599609375,0.011964112520217896,-4.208974838256836,8.824729919433594,-1.6800000667572021,4.690000057220459,-1.8200000524520874,82
11:13:6:826,-0.04759960621595383,0.07617902755737305,-0.04921150207519531,0.007178467698395252,-4.108476161956787,8.762516975402832,-1.75,4.059999942779541,-0.7699999809265137,82
11:13:6:867,-0.12039278447628021,-0.06922674179077148,-0.035541534423828125,-0.09571290016174316,-4.271188735961914,8.767301559448242,-3.2200000286102295,5.809999942779541,-1.8200000524520874,82
11:13:6:907,-0.11354255676269531,0.0479884147644043,-0.0437469482421875,-0.11724831163883209,-4.141976356506348,8.748159408569336,-3.2200000286102295,7.28000020980835,-4.96999979019165,82
11:13:6:945,-0.08509127050638199,0.0383906364440918,-0.08859729766845703,-0.11006984114646912,-4.141976356506348,8.681159973144531,-0.14000000059604645,9.029999732971191,-5.599999904632568,82
11:13:6:987,-0.10444392263889313,0.17619633674621582,-0.1263904571533203,-0.15553347766399384,-3.9601213932037354,8.61176872253418,-1.1200000047683716,10.289999961853027,-5.740000247955322,82
11:13:7:26,-0.008899066597223282,0.08352947235107422,-0.24468135833740234,-0.062213387340307236,-4.0319061279296875,8.432307243347168,-1.75,13.230000495910645,-7.420000076293945,81
11:13:7:66,-0.11431769281625748,0.07448101043701172,-0.18043136596679688,-0.19621144235134125,-4.022334575653076,8.451449394226074,-2.0299999713897705,17.079999923706055,-9.9399995803833,81
11:13:7:107,-0.06465455889701843,0.05767059326171875,-0.37214183807373047,-0.1627119481563568,-4.0247273445129395,8.166703224182129,-2.5199999809265137,22.81999969482422,-11.0600004196167,81
11:13:7:146,-0.021095506846904755,0.3237035274505615,-0.6097373962402344,-0.12442677468061447,-3.6777684688568115,7.776673316955566,-8.75,31.219999313354492,-10.850000381469727,81
11:13:7:186,-0.17958836257457733,0.20153522491455078,-0.39016246795654297,-0.3278167247772217,-3.7495529651641846,7.898707389831543,1.190000057220459,45.150001525878906,-7,81
11:13:7:228,-1.0433720350265503,0.0291445255279541,-0.22598838806152344,-1.4524433612823486,-3.9146575927734375,8.00638484954834,4.900000095367432,53.54999923706055,0.2800000011920929,81
11:13:7:266,-0.7428131103515625,0.1037142276763916,-0.2305622100830078,-1.3375877141952515,-3.814159393310547,7.944170951843262,0.49000000953674316,56.13999938964844,-9.65999984741211,81
11:13:7:307,-0.9694451093673706,-0.34390830993652344,0.30368614196777344,-1.8065810203552246,-4.347758769989014,8.554340362548828,10.850000381469727,65.16999816894531,-7.559999942779541,81
11:13:7:346,-1.0856659412384033,0.42740583419799805,0.30803394317626953,-2.194218397140503,-3.469593048095703,8.635696411132812,7.349999904632568,61.25,-8.890000343322754,81
11:13:7:386,-1.092500925064087,-0.14429664611816406,0.5105953216552734,-2.4741785526275635,-4.077369689941406,8.965906143188477,0.21000000834465027,57.189998626708984,-10.640000343322754,81
11:13:7:428,-1.1305114030838013,0.060674190521240234,0.5635309219360352,-2.7948169708251953,-3.8572301864624023,9.159724235534668,7.559999942779541,55.02000045776367,-7.28000020980835,81
11:13:7:466,-1.1743193864822388,0.14233827590942383,0.2708854675292969,-3.13220477104187,-3.7399816513061523,8.934800148010254,0.07000000029802322,47.95000076293945,-6.720000267028809,81
11:13:7:507,-1.0983390808105469,-0.1464684009552002,0.07696723937988281,-3.3308091163635254,-4.065405368804932,8.760124206542969,1.1200000047683716,42.84000015258789,-9.59000015258789,81
11:13:7:546,-0.926527738571167,0.16804933547973633,-0.2944784164428711,-3.390629768371582,-3.7088751792907715,8.315058708190918,1.399999976158142,39.7599983215332,-13.020000457763672,81
11:13:7:587,-0.9039340019226074,0.0770118236541748,-0.05181312561035156,-3.594019651412964,-3.7806599140167236,8.544770240783691,2.380000114440918,38.779998779296875,-11.550000190734863,81
11:13:7:626,-0.9566864967346191,0.29706335067749023,-0.12567806243896484,-3.88594388961792,-3.486342430114746,8.439485549926758,3.990000009536743,34.29999923706055,-6.579999923706055,81
11:13:7:666,-0.7270641326904297,0.036653757095336914,-0.3111114501953125,-3.838087558746338,-3.73758864402771,8.176274299621582,-2.870000123977661,31.290000915527344,-11.130000114440918,81
11:13:7:708,-0.6027078628540039,-0.01470494270324707,-0.34268760681152344,-3.864408254623413,-3.79262375831604,8.059026718139648,2.6600000858306885,30.940000534057617,-7.490000247955322,81
11:13:7:746,-0.606593132019043,0.32323122024536133,-0.5766034126281738,-4.019941806793213,-3.373879909515381,7.680960178375244,-5.949999809265137,30.799999237060547,-7.559999942779541,81
11:13:7:787,-0.5809874534606934,-0.06301045417785645,-0.5282812118530273,-4.139583110809326,-3.775874137878418,7.597211837768555,-4.550000190734863,32.689998626708984,-2.380000114440918,81
11:13:7:826,-0.7959568500518799,0.16973137855529785,-0.6351075172424316,-4.553541660308838,-3.500699520111084,7.331608772277832,1.3300000429153442,31.920000076293945,3.7100000381469727,81
11:13:7:868,-0.6578218936920166,0.007529735565185547,-0.6746268272399902,-4.579862117767334,-3.6610186100006104,7.123432636260986,-13.649999618530273,29.329999923706055,5.25,81
11:13:7:906,-0.7253408432006836,-0.01120448112487793,-0.5014162063598633,-4.828716278076172,-3.682554006576538,7.171289443969727,-12.390000343322754,29.96000099182129,14,81
11:13:7:948,-0.7353277206420898,-0.01470637321472168,-0.598301887512207,-5.0225348472595215,-3.689732551574707,6.92482852935791,-20.510000228881836,29.469999313354492,16.450000762939453,81
11:13:7:986,-0.37386512756347656,0.22368884086608887,-0.5628690719604492,-4.754538536071777,-3.3954150676727295,6.819544315338135,-45.36000061035156,35.90999984741211,17.920000076293945,81
11:13:8:28,-0.9652538299560547,-0.43935441970825195,-0.513465404510498,-5.587240695953369,-4.168296813964844,6.740581512451172,-19.530000686645508,36.88999938964844,27.719999313354492,80
11:13:8:67,-0.620976448059082,-0.05285954475402832,-0.4548001289367676,-5.398207664489746,-3.7950167655944824,6.685546875,-41.790000915527344,42.279998779296875,28.350000381469727,80
11:13:8:108,-1.1935715675354004,-1.4837241172790527,-0.2126140594482422,-6.269195556640625,-5.5968122482299805,6.874579429626465,-5.599999904632568,42.70000076293945,34.790000915527344,80
11:13:8:146,-0.7940592765808105,-0.11882305145263672,0.23381710052490234,-6.068198204040527,-4.261617183685303,7.379465103149414,2.940000057220459,44.17000198364258,28.90999984741211,80
11:13:8:188,-1.035327434539795,-0.13908624649047852,-0.26662540435791016,-6.56829833984375,-4.316651821136475,6.812366485595703,-6.090000152587891,54.18000030517578,34.22999954223633,80
11:13:8:228,-0.7421197891235352,0.35580968856811523,-0.4162120819091797,-6.460620880126953,-3.7328033447265625,6.558726787567139,-9.380000114440918,53.76000213623047,17.290000915527344,80
11:13:8:268,-0.9401769638061523,0.016651630401611328,-0.5186529159545898,-6.893722057342529,-4.067798614501953,6.32662296295166,7.210000038146973,56.279998779296875,22.049999237060547,80
11:13:8:307,-0.06300878524780273,0.5072000026702881,-0.5355210304260254,-6.03230619430542,-3.4504501819610596,6.175874710083008,4.480000019073486,70.55999755859375,14.980000495910645,80
11:13:8:403,-3.999520778656006,0.9245240688323975,-1.100320816040039,-10.968698501586914,-2.801995038986206,5.335994720458984,-19.8799991607666,3.640000104904175,-47.810001373291016,80
11:13:8:407,0.44321632385253906,0.13279962539672852,-1.1367673873901367,-6.415157318115234,-3.5605196952819824,5.015356063842773,6.510000228881836,24.639999389648438,17.850000381469727,80
11:13:8:420,-0.03402137756347656,0.37232112884521484,-0.4691343307495117,-6.900900363922119,-3.2279179096221924,5.565705299377441,-4.619999885559082,15.329999923706055,14.140000343322754,80
11:13:8:464,-0.7680349349975586,0.02028965950012207,-0.656702995300293,-7.82692289352417,-3.5748770236968994,5.213961124420166,-3.7100000381469727,12.880000114440918,14.630000114440918,80
11:13:8:506,-1.0795927047729492,-0.3627915382385254,-0.7589025497436523,-8.408378601074219,-4.048655986785889,4.922036170959473,-6.090000152587891,-1.75,8.890000343322754,80
11:13:8:547,-1.0149002075195312,0.05816197395324707,0.3538351058959961,-8.597411155700684,-3.613162040710449,6.123232841491699,5.53000020980835,-25.899999618530273,0.6299999952316284,80
11:13:8:588,-0.279757022857666,0.3164398670196533,0.07632827758789062,-7.932207107543945,-3.2757742404937744,5.864808082580566,-5.599999904632568,-36.119998931884766,-6.929999828338623,80
11:13:8:627,0.33707237243652344,0.22443795204162598,-0.053792476654052734,-7.231109619140625,-3.31166672706604,5.72123908996582,-2.6600000858306885,-40.95000076293945,-8.819999694824219,80
11:13:8:668,0.97027587890625,0.7576565742492676,-0.008577346801757812,-6.355337142944336,-2.589033842086792,5.764309883117676,-24.920000076293945,-25.760000228881836,-0.699999988079071,80
11:13:8:707,1.053788185119629,0.6195249557495117,-0.43757009506225586,-6.008377552032471,-2.57228422164917,5.225924491882324,-33.11000061035156,-9.800000190734863,7.559999942779541,80
11:13:8:748,0.810488224029541,0.2046527862548828,-0.5893383026123047,-6.049055576324463,-2.935993194580078,4.926821708679199,-28.84000015258789,7.139999866485596,15.399999618530273,80
11:13:8:787,0.37273740768432617,0.34557652473449707,-0.7662663459777832,-6.393621921539307,-2.7086753845214844,4.5583271980285645,-17.010000228881836,24.639999389648438,24.780000686645508,80
11:13:8:828,-0.49048471450805664,-0.25953102111816406,-0.4598727226257324,-7.379465103149414,-3.3786656856536865,4.749752521514893,-19.8799991607666,34.720001220703125,28.979999542236328,80
11:13:8:869,-1.0872631072998047,-0.35310792922973633,0.43034791946411133,-8.248059272766113,-3.5605196952819824,5.747560024261475,35.70000076293945,18.270000457763672,26.110000610351562,80
11:13:8:908,-1.0344367027282715,-0.663424015045166,0.3500208854675293,-8.453842163085938,-4.036691665649414,5.7547383308410645,7.139999866485596,2.870000123977661,10.710000038146973,80
11:13:8:948,-0.40641307830810547,-0.3297419548034668,0.8830080032348633,-7.927421569824219,-3.785445213317871,6.508477687835693,27.15999984741211,-18.829999923706055,4.059999942779541,80
11:13:8:987,-0.10690498352050781,-0.11448168754577637,0.7083206176757812,-7.654639720916748,-3.5988054275512695,6.510870456695557,8.75,-42.77000045776367,-9.239999771118164,80
11:13:9:29,-0.3343772888183594,0.18598222732543945,0.24506092071533203,-7.9657063484191895,-3.2518460750579834,6.1088762283325195,17.56999969482422,-59.5,-14.350000381469727,80
11:13:9:68,0.3661174774169922,-1.4323911666870117,2.3553314208984375,-7.17368221282959,-5.2283172607421875,8.807979583740234,26.670000076293945,-85.68000030517578,-45.36000061035156,80
11:13:9:109,0.737001895904541,-0.5716357231140137,1.5320420265197754,-6.618547439575195,-4.510470867156982,8.367700576782227,18.270000457763672,-75.11000061035156,-43.540000915527344,80
11:13:9:147,0.9781956672668457,0.19928216934204102,0.5211868286132812,-6.1328043937683105,-3.689732551574707,7.487142086029053,12.039999961853027,-84.48999786376953,-56.70000076293945,80
11:13:9:189,1.898569107055664,0.04648470878601074,1.0122838020324707,-4.737788677215576,-3.830909013748169,8.23130989074707,15.260000228881836,-75.38999938964844,-54.529998779296875,80
11:13:9:229,1.6241393089294434,0.8048052787780762,0.10346603393554688,-4.6061835289001465,-2.871387243270874,7.348358631134033,9.800000190734863,-65.80000305175781,-49.42000198364258,80
11:13:9:269,2.1836986541748047,0.5289885997772217,0.21677017211914062,-3.500699520111084,-3.0149567127227783,7.515855312347412,15.609999656677246,-64.54000091552734,-47.880001068115234,80
11:13:9:308,2.0149548053741455,0.511246919631958,0.3418712615966797,-3.1657044887542725,-2.9048867225646973,7.726424217224121,10.779999732971191,-44.380001068115234,-31.780000686645508,80
11:13:9:349,1.5832500457763672,0.592766523361206,-0.3524651527404785,-3.201596736907959,-2.675175428390503,6.943971633911133,14.84000015258789,-33.95000076293945,-18.059999465942383,80
11:13:9:391,1.3871984481811523,-0.19194889068603516,0.47607421875,-3.050848960876465,-3.507878065109253,7.891529560089111,5.25,-34.369998931884766,-22.399999618530273,80
11:13:9:429,1.3432986736297607,0.08955168724060059,0.5071992874145508,-2.7589242458343506,-3.2039895057678223,8.049454689025879,6.789999961853027,-25.270000457763672,-19.600000381469727,80
11:13:9:470,1.252664566040039,0.29752373695373535,0.3177042007446289,-2.5363922119140625,-2.9216365814208984,7.939385414123535,3.569999933242798,-20.020000457763672,-18.270000457763672,80
11:13:9:509,1.161015272140503,0.2054767608642578,0.2752199172973633,-2.337787628173828,-2.9623143672943115,7.9657063484191895,5.25,-12.880000114440918,-15.680000305175781,80
11:13:9:549,1.0130393505096436,0.13183903694152832,0.34651660919189453,-2.232503652572632,-3.0029923915863037,8.123632431030273,6.090000152587891,-5.949999809265137,-10.569999694824219,80
11:13:9:588,0.7587466239929199,-0.03426980972290039,0.49735355377197266,-2.297109842300415,-3.177668571472168,8.398807525634766,1.6100000143051147,-2.5199999809265137,-6.860000133514404,80
11:13:9:632,0.6893105506896973,-0.24564099311828613,0.5739946365356445,-2.194218397140503,-3.4504501819610596,8.61894702911377,1.399999976158142,0.21000000834465027,-4.829999923706055,80
11:13:9:666,0.538048505783081,-0.058686017990112305,0.5338516235351562,-2.210968255996704,-3.2781667709350586,8.71226692199707,-1.3300000429153442,0.42000001668930054,-4.199999809265137,80
11:13:9:710,0.4419245719909668,-0.12926220893859863,0.49982357025146484,-2.196611166000366,-3.38105845451355,8.803194999694824,-0.699999988079071,2.7300000190734863,-1.75,80
11:13:9:749,0.32865428924560547,-0.15318036079406738,0.3194599151611328,-2.227717876434326,-3.4432716369628906,8.702695846557617,-0.7699999809265137,1.1200000047683716,-1.9600000381469727,80
11:13:9:789,0.34140801429748535,-0.024917125701904297,0.2651395797729492,-2.1296122074127197,-3.321237564086914,8.71466064453125,-7.210000038146973,1.1200000047683716,-1.1200000047683716,80
11:13:9:829,0.1774134635925293,-0.03907656669616699,0.2082834243774414,-2.249253273010254,-3.345165967941284,8.709875106811523,-1.5399999618530273,4.269999980926514,2.380000114440918,80
11:13:9:870,0.1227881908416748,0.0816798210144043,0.1072835922241211,-2.273181438446045,-3.2039895057678223,8.635696411132812,-4.619999885559082,4.760000228881836,3.1500000953674316,80
11:13:9:909,0.06377387046813965,-0.14522457122802734,0.30788135528564453,-2.3162522315979004,-3.4672000408172607,8.913264274597168,-3.0799999237060547,5.740000247955322,2.870000123977661,80
11:13:9:949,-0.0868077278137207,0.0484466552734375,0.056794166564941406,-2.4885356426239014,-3.2614171504974365,8.676375389099121,-5.110000133514404,7.210000038146973,3.640000104904175,80
11:13:9:989,-0.1192166805267334,-0.38237953186035156,0.2789745330810547,-2.550748825073242,-3.7878382205963135,8.968299865722656,-5.179999828338623,6.159999847412109,4.059999942779541,80
11:13:10:30,-0.10494470596313477,-0.2810182571411133,0.47011852264404297,-2.562713146209717,-3.7567315101623535,9.276973724365234,1.4700000286102295,0.6299999952316284,-0.49000000953674316,80
11:13:10:69,0.18595480918884277,-0.20950031280517578,0.19041156768798828,-2.225324869155884,-3.73758864402771,9.044869422912598,-3.8499999046325684,-5.179999828338623,-4.619999885559082,80
11:13:10:110,0.43015968799591064,0.2420504093170166,-0.08121013641357422,-1.8735800981521606,-3.225525140762329,8.752944946289062,-0.9800000190734863,-5.320000171661377,-4.269999980926514,80
11:13:10:149,0.3096710443496704,0.40038037300109863,-0.18747997283935547,-1.9166508913040161,-2.967100143432617,8.599804878234863,-4.199999809265137,-3.8499999046325684,-1.9600000381469727,80
11:13:10:190,0.20562326908111572,0.34136128425598145,-0.29929637908935547,-1.9692929983139038,-2.940778970718384,8.413164138793945,-4.760000228881836,-1.6100000143051147,2.0999999046325684,80
11:13:10:231,0.0687856674194336,0.09123444557189941,-0.19732379913330078,-2.0889341831207275,-3.1680972576141357,8.465806007385254,-5.039999961853027,3.009999990463257,7.28000020980835,80
11:13:10:267,-0.17659664154052734,-0.18926572799682617,0.10630989074707031,-2.3784656524658203,-3.4959137439727783,8.796016693115234,-4.480000019073486,5.670000076293945,7.769999980926514,80
11:13:10:310,-0.13553476333618164,-0.30646753311157227,0.10227584838867188,-2.3712873458862305,-3.689732551574707,8.817551612854004,-6.440000057220459,3.8499999046325684,3.990000009536743,80
11:13:10:364,-0.04142880439758301,-0.12648987770080566,0.12584877014160156,-2.287538528442383,-3.541377305984497,8.872586250305176,-3.640000104904175,2.240000009536743,1.4700000286102295,80
11:13:10:384,0.0644841194152832,0.11703324317932129,-0.021833419799804688,-2.1655044555664062,-3.2685959339141846,8.71944522857666,-4.900000095367432,2.940000057220459,0.8400000333786011,80
11:13:10:423,0.11284351348876953,0.02662801742553711,0.04953289031982422,-2.0889341831207275,-3.352344274520874,8.803194999694824,-7.139999866485596,3.8499999046325684,1.9600000381469727,80
11:13:10:465,-0.030323505401611328,0.19549965858459473,-0.0656585693359375,-2.2396819591522217,-3.1345977783203125,8.671588897705078,-5.949999809265137,4.550000190734863,4.059999942779541,80
11:13:10:507,-0.030001401901245117,-0.11159658432006836,0.022129058837890625,-2.2468602657318115,-3.469593048095703,8.764908790588379,-6.510000228881836,3.0799999237060547,4.760000228881836,80
11:13:10:544,0.04299783706665039,0.11554861068725586,-0.14883708953857422,-2.163111686706543,-3.2135608196258545,8.556733131408691,-9.029999732971191,2.940000057220459,4.96999979019165,80
11:13:10:586,-0.0038869380950927734,0.7815718650817871,0.2963247299194336,-2.210968255996704,-2.352144718170166,9.075976371765137,-8.609999656677246,2.7300000190734863,9.380000114440918,80
11:13:10:629,0.12131738662719727,1.660871148109436,0.20068931579589844,-2.0554347038269043,-1.057627558708191,9.030512809753418,-23.239999771118164,-9.100000381469727,38.150001525878906,80
11:13:10:670,0.34590744972229004,0.9305311441421509,-0.29312801361083984,-1.7443678379058838,-1.5553346872329712,8.46341323852539,-58.869998931884766,-13.930000305175781,58.65999984741211,80
11:13:10:709,-0.25160932540893555,-1.198547124862671,-0.7915515899658203,-2.4047868251800537,-3.9840497970581055,7.767102241516113,-62.790000915527344,-1.6100000143051147,71.68000030517578,80
11:13:10:750,-0.4482269287109375,-1.4259164333343506,-0.7270402908325195,-2.71346116065979,-4.567898273468018,7.649853706359863,-50.75,14.90999984741211,57.33000183105469,80
11:13:10:825,-0.7758893966674805,-2.7984812259674072,-0.9357700347900391,-3.235095977783203,-6.640083312988281,7.207180976867676,-42,42.90999984741211,42.90999984741211,80
11:13:10:829,-1.2907021045684814,-0.31304073333740234,-0.4844474792480469,-4.07258415222168,-4.232903003692627,7.537391662597656,27.579999923706055,61.7400016784668,37.869998931884766,80
11:13:10:873,-1.1876165866851807,-0.4093160629272461,-0.5368704795837402,-4.266402721405029,-4.431507587432861,7.350750923156738,10.220000267028809,59.56999969482422,24.639999389648438,80
11:13:10:910,-1.4210009574890137,-0.467193603515625,0.15818071365356445,-4.855037212371826,-4.6061835289001465,8.085347175598145,10.710000038146973,41.09000015258789,16.940000534057617,80
11:13:10:950,-0.5567805767059326,0.14118075370788574,0.40602684020996094,-4.130012035369873,-3.9625141620635986,8.434700012207031,-22.190000534057617,33.18000030517578,17.639999389648438,80
11:13:10:989,-0.3554539680480957,0.29671335220336914,-0.9539027214050293,-4.01754903793335,-3.7328033447265625,6.836294651031494,-44.099998474121094,43.959999084472656,27.299999237060547,80
11:13:11:30,-0.7686705589294434,-0.14739513397216797,-0.035704612731933594,-4.622933387756348,-4.2137603759765625,7.7455668449401855,-17.360000610351562,33.18000030517578,20.649999618530273,79
11:13:11:71,-0.5287947654724121,-0.8013067245483398,0.5246572494506836,-4.515256404876709,-5.06799840927124,8.437092781066895,-52.36000061035156,45.63999938964844,14.770000457763672,79
11:13:11:110,-1.2882804870605469,-0.16248035430908203,-1.0351104736328125,-5.5968122482299805,-4.469792366027832,6.618547439575195,-13.789999961853027,45.5,24.989999771118164,79
11:13:11:150,-0.5348315238952637,0.8596868515014648,-0.6270914077758789,-4.977071285247803,-3.232703685760498,6.86979341506958,-27.09000015258789,20.790000915527344,0.14000000059604645,79
11:13:11:189,-0.13115501403808594,0.39678263664245605,-0.844325065612793,-4.6061835289001465,-3.596412420272827,6.441478729248047,-83.6500015258789,33.040000915527344,-6.860000133514404,79
11:13:11:283,-0.40929126739501953,0.6122217178344727,-1.6957597732543945,-4.986642360687256,-3.2279179096221924,5.166104316711426,-101.70999908447266,34.93000030517578,14.630000114440918,79
11:13:11:288,-0.2987194061279297,1.1348824501037598,-1.3259797096252441,-4.950750350952148,-2.421536445617676,5.204389572143555,-181.50999450683594,28,33.25,79
11:13:11:303,-1.2860746383666992,0.668623685836792,-2.360565185546875,-6.259624004364014,-2.720639228820801,3.579662799835205,-301,53.54999923706055,11.199999809265137,79
11:13:11:345,-1.034602165222168,-1.746896505355835,-5.13503360748291,-6.2668023109436035,-5.572883605957031,-0.4785645008087158,-334.17999267578125,36.81999969482422,-1.399999976158142,79
11:13:11:390,-0.7779111862182617,-2.0675082206726074,-4.025713920593262,-6.204589366912842,-6.410372257232666,-0.3756731450557709,-250.9499969482422,7.28000020980835,65.94000244140625,79
11:13:11:432,-1.5354299545288086,-2.4331092834472656,-4.215985298156738,-7.345965385437012,-7.384250640869141,-1.6199408769607544,-85.12000274658203,23.170000076293945,111.37000274658203,79
11:13:11:471,-1.7949647903442383,0.15536785125732422,-3.213904857635498,-8.054241180419922,-4.756931304931641,-1.4213367700576782,-8.890000343322754,18.969999313354492,177.72999572753906,79
11:13:11:510,-3.5895118713378906,0.5607452392578125,-3.061173915863037,-10.746166229248047,-4.211367607116699,-2.0338993072509766,10.430000305175781,2.450000047683716,168.27999877929688,79
11:13:11:551,-1.9987082481384277,-0.10462474822998047,-1.229556679725647,-9.65503978729248,-4.902893543243408,-0.5096712112426758,34.369998931884766,4.690000057220459,169.25999450683594,79
11:13:11:590,-3.06911563873291,0.8676862716674805,-1.548351526260376,-11.49272632598877,-3.713660717010498,-1.215553879737854,47.880001068115234,40.67000198364258,172.27000427246094,79
11:13:11:645,-2.4112653732299805,0.6788349151611328,-0.10352618992328644,-11.437692642211914,-3.7328033447265625,0.20338992774486542,56.13999938964844,39.34000015258789,119.06999969482422,79
11:13:11:671,-1.8696699142456055,1.318342685699463,-0.23404733836650848,-11.36351490020752,-2.7637100219726562,0.014356935396790504,28.979999542236328,40.599998474121094,74.34000396728516,79
11:13:11:710,-1.0382280349731445,1.200157642364502,-0.2561511695384979,-10.791629791259766,-2.5818557739257812,-0.07178468257188797,-19.25,13.369999885559082,11.0600004196167,79
11:13:11:751,-0.1452779769897461,0.22696542739868164,-0.3255191743373871,-9.934999465942383,-3.4983065128326416,-0.2225324809551239,-24.290000915527344,8.890000343322754,-1.6800000667572021,79
11:13:11:790,0.2245159149169922,0.9051618576049805,0.5301731824874878,-9.509077072143555,-2.5938196182250977,0.7657032012939453,-21.489999771118164,4.130000114440918,-12.460000038146973,79
11:13:11:832,-0.13432598114013672,0.7164721488952637,-0.2937082052230835,-9.901500701904297,-2.603391170501709,-0.13160523772239685,-54.599998474121094,-23.520000457763672,-28.489999771118164,79
11:13:11:870,0.24667835235595703,-0.7036323547363281,-0.9585561156272888,-9.458827018737793,-4.199403762817383,-1.0360921621322632,-38.709999084472656,-45.849998474121094,-28.84000015258789,79
11:13:11:912,0.29688358306884766,-2.0215706825256348,0.4295663833618164,-9.33440113067627,-6.022734642028809,0.45942193269729614,96.5999984741211,-81.4800033569336,-15.680000305175781,79
11:13:11:950,-0.4784259796142578,2.7644803524017334,1.5324074029922485,-10.229316711425781,-0.5455635190010071,1.9453648328781128,97.58000183105469,-39.619998931884766,5.880000114440918,79
11:13:11:991,-0.16834354400634766,-1.262794017791748,-0.08151239156723022,-9.961319923400879,-4.88853645324707,0.31106695532798767,85.54000091552734,-50.33000183105469,-48.02000045776367,79
11:13:12:31,0.24051856994628906,2.039177894592285,0.9206330180168152,-9.492327690124512,-1.0767701864242554,1.5433706045150757,113.12000274658203,-57.04999923706055,-28.06999969482422,80
11:13:12:71,0.43552589416503906,0.21096301078796387,0.3306836485862732,-9.18843936920166,-2.8522443771362305,1.0360921621322632,74.12999725341797,-54.880001068115234,-53.83000183105469,80
11:13:12:112,1.1256103515625,1.2713828086853027,1.437986969947815,-8.216952323913574,-1.4739787578582764,2.502892255783081,84.06999969482422,-38.56999969482422,-33.880001068115234,80
11:13:12:151,0.9789724349975586,1.3635869026184082,1.0240486860275269,-8.118846893310547,-1.0408778190612793,2.344966173171997,9.100000381469727,-6.369999885559082,-36.61000061035156,80
11:13:12:191,0.6587505340576172,-0.2969677448272705,-0.1264045238494873,-8.274380683898926,-2.775674343109131,1.1629117727279663,57.400001525878906,-3.569999933242798,-27.93000030517578,80
11:13:12:233,0.5518856048583984,1.4871726036071777,0.6492655277252197,-8.243274688720703,-0.6197410225868225,2.100898265838623,38.290000915527344,13.649999618530273,-6.440000057220459,80
11:13:12:271,0.1926555633544922,0.41063499450683594,0.32032954692840576,-8.554340362548828,-1.5936198234558105,1.852044701576233,5.110000133514404,29.049999237060547,-6.369999885559082,80
11:13:12:311,0.10626792907714844,0.1945098638534546,0.380690336227417,-8.614161491394043,-1.7611174583435059,2.007578134536743,32.34000015258789,35.42000198364258,1.9600000381469727,80
11:13:12:352,-0.23275184631347656,0.7337138652801514,0.6299762725830078,-9.011369705200195,-1.038485050201416,2.414358139038086,-2.5199999809265137,41.93000030517578,2.7300000190734863,80
11:13:12:391,-0.7719640731811523,-0.46587085723876953,0.16324293613433838,-9.743573188781738,-2.3545374870300293,1.9884356260299683,-48.650001525878906,46.130001068115234,8.1899995803833,80
11:13:12:433,-0.36871814727783203,-0.7383198738098145,0.15930819511413574,-9.432506561279297,-2.8115665912628174,2.0243279933929443,-36.88999938964844,34.09000015258789,14.420000076293945,80
11:13:12:472,-0.12652015686035156,-0.13889074325561523,0.4547847509384155,-9.221939086914062,-2.2468602657318115,2.4335007667541504,-65.02999877929688,34.09000015258789,7.840000152587891,80
11:13:12:512,-0.38069725036621094,-2.6819612979888916,-0.4076184034347534,-9.571290969848633,-5.460421085357666,1.4691929817199707,-38.36000061035156,16.940000534057617,-4.550000190734863,80
11:13:12:551,-0.2471294403076172,-1.0582704544067383,-0.159554123878479,-9.499505043029785,-4.101297855377197,1.6773687601089478,-5.25,8.399999618530273,-2.380000114440918,80
11:13:12:592,-0.17856121063232422,-1.2505249977111816,-0.3803255558013916,-9.475577354431152,-4.6061835289001465,1.361515998840332,-47.529998779296875,4.829999923706055,-24.010000228881836,80
11:13:12:631,0.1730031967163086,-1.5249266624450684,-0.05349254608154297,-9.080761909484863,-5.26181697845459,1.674975872039795,-7.630000114440918,-6.720000267028809,-23.799999237060547,80
11:13:12:671,0.4083127975463867,-0.3489539623260498,0.07397580146789551,-8.74337387084961,-4.1730828285217285,1.8209381103515625,5.880000114440918,-9.869999885559082,-31.079999923706055,80
11:13:12:712,0.022283554077148438,-0.48781728744506836,0.29272007942199707,-9.123832702636719,-4.433900356292725,2.1128623485565186,-28.489999771118164,-13.230000495910645,-43.470001220703125,80
11:13:12:752,-0.16019916534423828,-0.34622621536254883,0.3643457889556885,-9.346364974975586,-4.378865718841553,2.2755744457244873,-66.77999877929688,-21.06999969482422,-52.779998779296875,80
11:13:12:791,-0.3176708221435547,-1.7701025009155273,-0.5010263919830322,-9.58325481414795,-6.245267391204834,1.2849457263946533,-76.30000305175781,-29.190000534057617,-64.54000091552734,80
11:13:12:832,0.33545494079589844,-0.8666901588439941,0.10071456432342529,-8.84626579284668,-5.55852746963501,1.9118653535842896,-0.6299999952316284,-46.130001068115234,-57.26000213623047,80
11:13:12:873,0.7928714752197266,0.14509296417236328,0.5361649990081787,-8.190631866455078,-4.510470867156982,2.4813570976257324,-18.059999465942383,-47.31999969482422,-59.36000061035156,80
11:13:12:912,0.8754940032958984,-0.7644839286804199,-0.1778876781463623,-7.88913631439209,-5.61116886138916,1.722832441329956,-35,-42.349998474121094,-63.279998779296875,80
11:13:12:952,1.0832462310791016,-1.1437511444091797,-0.5711040496826172,-7.410572052001953,-6.276373863220215,1.1868400573730469,26.040000915527344,-45.779998779296875,-52.220001220703125,80
11:13:12:992,1.077165126800537,-0.16652631759643555,0.14993655681610107,-7.1473612785339355,-5.340780735015869,1.9453648328781128,49.349998474121094,-38.150001525878906,-42.560001373291016,80
11:13:13:34,0.21854209899902344,1.1952745914459229,-4.677181720733643,-7.951349258422852,-3.680161237716675,-4.051048755645752,47.18000030517578,-20.790000915527344,-37.52000045776367,80
11:13:13:72,1.0649633407592773,-0.9350671768188477,1.7004905939102173,-6.838686943054199,-6.044269561767578,2.75174617767334,143.85000610351562,-46.27000045776367,-8.119999885559082,80
11:13:13:113,2.1804661750793457,1.2848882675170898,2.922427177429199,-5.178067684173584,-3.5030922889709473,4.704289436340332,81.97000122070312,-42.90999984741211,21.21000099182129,80
11:13:13:152,-0.4340524673461914,-0.52838134765625,1.514810562133789,-7.901099681854248,-5.44845724105835,3.675375461578369,84.06999969482422,-71.26000213623047,50.540000915527344,80
11:13:13:191,0.13706493377685547,0.0692591667175293,2.0522079467773438,-7.295715808868408,-4.833501815795898,4.72582483291626,135.24000549316406,-79.5199966430664,28.700000762939453,80
11:13:13:233,1.064866065979004,0.6067137718200684,2.336642026901245,-6.10169792175293,-4.144368648529053,5.594419479370117,70.3499984741211,-59.01000213623047,-14,80
11:13:13:272,1.4797697067260742,1.2644736766815186,2.5125041007995605,-5.31685209274292,-3.170490026473999,6.398407459259033,41.22999954223633,-43.189998626708984,-18.059999465942383,80
11:13:13:313,1.095759391784668,0.7359256744384766,2.0712594985961914,-5.42692232131958,-3.515056610107422,6.474977493286133,19.739999771118164,-31.360000610351562,-11.6899995803833,80
11:13:13:352,1.1312041282653809,0.38965773582458496,1.6244654655456543,-5.108676433563232,-3.7639100551605225,6.434299945831299,10.920000076293945,-23.030000686645508,-11.270000457763672,80
11:13:13:395,0.8169078826904297,0.3442685604095459,1.6939096450805664,-5.218745708465576,-3.7232320308685303,6.927221298217773,-9.239999771118164,-11.270000457763672,-24.079999923706055,80
11:13:13:432,0.7817811965942383,0.15098810195922852,1.2326149940490723,-5.058426856994629,-3.87876558303833,6.774080753326416,-9.449999809265137,-8.050000190734863,-19.040000915527344,80
11:13:13:474,0.889592170715332,0.15333294868469238,1.0645766258239746,-4.728217601776123,-3.838087558746338,6.872186660766602,5.25,-7.980000019073486,-19.600000381469727,80
11:13:13:513,0.7365589141845703,0.34472060203552246,1.0450010299682617,-4.697111129760742,-3.5605196952819824,7.113861560821533,14.140000343322754,-10.5,-14,80
11:13:13:552,0.403564453125,0.2279198169708252,1.0044560432434082,-4.9292144775390625,-3.620340585708618,7.324430465698242,-10.920000076293945,-6.929999828338623,-6.860000133514404,80
11:13:13:594,0.32285165786743164,-0.42256975173950195,0.5872530937194824,-4.9292144775390625,-4.376472473144531,7.054040908813477,-24.079999923706055,-3.569999933242798,6.860000133514404,80
11:13:13:633,0.22765302658081055,-0.1944866180419922,0.7665128707885742,-4.967499732971191,-4.1970109939575195,7.424928665161133,-10.079999923706055,-8.470000267028809,5.949999809265137,80
11:13:13:674,0.41757631301879883,-0.17281770706176758,0.7606077194213867,-4.673182487487793,-4.218546390533447,7.609175682067871,-12.039999961853027,-10.079999923706055,7.490000247955322,80
11:13:13:713,0.5714292526245117,-0.3086233139038086,0.5185165405273438,-4.376472473144531,-4.431507587432861,7.496713638305664,-0.5600000023841858,-8.960000038146973,3.9200000762939453,80
11:13:13:753,0.5126566886901855,-0.08035802841186523,0.3171858787536621,-4.3070807456970215,-4.223331928253174,7.3746795654296875,-7.349999904632568,-12.319999694824219,16.100000381469727,80
11:13:13:792,0.24358463287353516,0.13288235664367676,0.5428013801574707,-4.515256404876709,-3.9768712520599365,7.735995292663574,-1.1200000047683716,-10.149999618530273,8.819999694824219,80
11:13:13:834,0.4666924476623535,-0.16169071197509766,0.05138969421386719,-4.175475597381592,-4.311866760253906,7.2574310302734375,-0.9100000262260437,-6.510000228881836,8.539999961853027,80
11:13:13:873,-0.08989620208740234,0.19798564910888672,0.16170978546142578,-4.754538536071777,-3.902693748474121,7.408178806304932,2.380000114440918,-5.460000038146973,4.900000095367432,80
11:13:13:914,0.1022806167602539,0.06841850280761719,0.19253826141357422,-4.5367913246154785,-4.015156269073486,7.487142086029053,-2.450000047683716,-2.870000123977661,3.7100000381469727,80
11:13:13:953,-0.03494548797607422,-0.025664329528808594,-0.09865140914916992,-4.682754039764404,-4.115654945373535,7.171289443969727,-1.0499999523162842,0.9100000262260437,1.75,80
11:13:13:995,0.15581226348876953,0.17855143547058105,-0.013836383819580078,-4.453042984008789,-3.8668015003204346,7.252645492553711,-0.8400000333786011,2.6600000858306885,-1.0499999523162842,80
11:13:14:34,0.1705923080444336,0.14092731475830078,0.0961294174194336,-4.395615100860596,-3.8691940307617188,7.386643409729004,-8.1899995803833,5.599999904632568,1.9600000381469727,80
11:13:14:76,-0.005181312561035156,-0.06911277770996094,0.08838939666748047,-4.572684288024902,-4.096512317657471,7.401000499725342,-10.989999771118164,7.210000038146973,6.019999980926514,80
11:13:14:116,0.04179716110229492,0.22802019119262695,0.25065135955810547,-4.515256404876709,-3.7423744201660156,7.625925540924072,-3.2200000286102295,5.53000020980835,4.409999847412109,80
11:13:14:154,-0.08716058731079102,-0.0664374828338623,0.1526646614074707,-4.666004180908203,-4.053441524505615,7.566104888916016,-20.229999542236328,7.769999980926514,6.510000228881836,80
11:13:14:195,-0.1979837417602539,-0.2082047462463379,0.1221318244934082,-4.826323509216309,-4.247260093688965,7.566104888916016,0.21000000834465027,3.990000009536743,9.869999885559082,80
11:13:14:234,0.027296066284179688,-0.0019373893737792969,0.1053628921508789,-4.59421968460083,-4.041477203369141,7.575676441192627,-8.680000305175781,3.009999990463257,5.949999809265137,80
11:13:14:276,-0.10641813278198242,-0.26763200759887695,-0.25261926651000977,-4.754538536071777,-4.374079704284668,7.154539585113525,-6.230000019073486,5.880000114440918,5.179999828338623,80
11:13:14:314,-0.008563995361328125,0.05963325500488281,0.02761554718017578,-4.658825397491455,-4.0319061279296875,7.441678524017334,0.07000000029802322,2.5899999141693115,3.430000066757202,80
11:13:14:355,-0.06045055389404297,-0.07863426208496094,0.024006366729736328,-4.72582483291626,-4.1898322105407715,7.444070816040039,-6.440000057220459,4.059999942779541,2.5899999141693115,80
11:13:14:394,-0.010075569152832031,-0.034193992614746094,0.003891468048095703,-4.677968502044678,-4.153940200805664,7.424928665161133,-5.53000020980835,3.3600001335144043,0.2800000011920929,80
11:13:14:436,0.07042455673217773,0.041558265686035156,0.1428537368774414,-4.579862117767334,-4.067798614501953,7.599604606628418,-3.0799999237060547,1.6100000143051147,0.42000001668930054,80
11:13:14:476,-0.037459373474121094,0.04090404510498047,0.04154062271118164,-4.697111129760742,-4.058227062225342,7.508677005767822,-4.199999809265137,1.5399999618530273,0.3499999940395355,80
11:13:14:515,-0.0893092155456543,-0.1721029281616211,0.008347511291503906,-4.7712883949279785,-4.3142595291137695,7.477570533752441,-7.210000038146973,1.8899999856948853,0.6299999952316284,80
11:13:14:555,0.02809429168701172,0.11117124557495117,0.08899116516113281,-4.646861553192139,-4.00319242477417,7.5804619789123535,3.430000066757202,-0.7699999809265137,-1.9600000381469727,80
11:13:14:594,-0.046437740325927734,-0.0010328292846679688,-0.032176971435546875,-4.73300313949585,-4.115654945373535,7.451249599456787,-7,0.21000000834465027,-2.380000114440918,80
11:13:14:636,-0.05629253387451172,-0.00656890869140625,0.05848550796508789,-4.756931304931641,-4.122833251953125,7.556533336639404,-3.3600001335144043,-2.309999942779541,-4.059999942779541,80
11:13:14:674,0.09662151336669922,-0.08948278427124023,0.48706817626953125,-4.579862117767334,-4.228117942810059,8.10688304901123,-16.520000457763672,-6.860000133514404,-7.840000152587891,80
11:13:14:714,0.35103607177734375,0.5333194732666016,0.6863646507263184,-4.2376885414123535,-3.4719858169555664,8.477770805358887,-57.959999084472656,-5.599999904632568,-3.1500000953674316,80
11:13:14:756,0.502882719039917,-0.6587285995483398,-0.31998157501220703,-3.9601213932037354,-4.828716278076172,7.3914289474487305,-107.23999786376953,-5.460000038146973,6.440000057220459,80
11:13:14:794,0.9114987850189209,-1.026604175567627,-0.5182385444641113,-3.3236305713653564,-5.453242778778076,7.063612461090088,-46.689998626708984,-10.079999923706055,9.100000381469727,80
11:13:14:837,0.20852088928222656,-1.322819709777832,-0.9582405090332031,-3.974478244781494,-6.08016300201416,6.384050369262695,-8.539999961853027,-7.070000171661377,9.239999771118164,80
11:13:14:875,-0.41320371627807617,-0.7787737846374512,-0.6325936317443848,-4.6995038986206055,-5.730810642242432,6.551548480987549,6.159999847412109,0.42000001668930054,7.210000038146973,80
11:13:14:916,-0.07979488372802734,-0.4966773986816406,-0.5099039077758789,-4.386044025421143,-5.572883605957031,6.546762466430664,32.689998626708984,2.309999942779541,-4.900000095367432,80
11:13:14:954,-1.233447551727295,0.1865067481994629,-0.4308938980102539,-5.848058700561523,-4.843072891235352,6.5180487632751465,2.309999942779541,11.130000114440918,10.149999618530273,80
11:13:14:991,0.03354167938232422,-0.03264904022216797,0.08982181549072266,-4.572684288024902,-5.0703911781311035,7.061219692230225,16.940000534057617,10.359999656677246,-15.260000228881836,80
11:13:15:46,-0.009537696838378906,0.18253469467163086,-0.1655101776123047,-4.618147850036621,-4.809573650360107,6.764510154724121,15.119999885559082,13.300000190734863,-53.619998931884766,80
11:13:15:68,0.9686415195465088,-0.2731947898864746,0.13750171661376953,-3.397808313369751,-5.333601474761963,7.101897716522217,5.460000038146973,3.009999990463257,-22.329999923706055,80
11:13:15:106,0.7634279727935791,-0.41763877868652344,0.39522600173950195,-3.4121649265289307,-5.582455158233643,7.458428382873535,9.59000015258789,-8.890000343322754,32.27000045776367,80
11:13:15:148,-0.972348690032959,1.2604660987854004,-0.7787752151489258,-5.391028881072998,-3.589233875274658,6.089733123779297,-8.960000038146973,3.5,29.68000030517578,80
11:13:15:191,0.09502220153808594,-0.1191248893737793,0.15034055709838867,-4.299902439117432,-4.998606204986572,7.056434154510498,20.15999984741211,-3.990000009536743,4.269999980926514,80
11:13:15:231,0.14301681518554688,0.5919184684753418,0.5662946701049805,-4.216153621673584,-4.139583110809326,7.613961696624756,9.170000076293945,3.640000104904175,1.8899999856948853,80
11:13:15:269,0.2618112564086914,0.3605937957763672,0.3898649215698242,-4.0319061279296875,-4.280759334564209,7.534998416900635,5.389999866485596,-0.699999988079071,2.380000114440918,80
11:13:15:312,-0.04897594451904297,0.05684947967529297,0.37314796447753906,-4.354937553405762,-4.570291519165039,7.611568450927734,-1.9600000381469727,-0.21000000834465027,4.829999923706055,80
11:13:15:349,0.04504680633544922,0.1737351417541504,0.21620512008666992,-4.249652862548828,-4.409972190856934,7.508677005767822,1.5399999618530273,-0.21000000834465027,1.6800000667572021,80
11:13:15:391,0.05326557159423828,0.1657876968383789,0.17679309844970703,-4.228117942810059,-4.376472473144531,7.513463020324707,3.2899999618530273,-0.7699999809265137,3.0799999237060547,80
11:13:15:429,-0.06649971008300781,0.27045679092407227,-0.017448902130126953,-4.364508152008057,-4.204189300537109,7.314858913421631,3.3600001335144043,1.8200000524520874,-2.450000047683716,80
11:13:15:469,0.46747827529907227,0.03833961486816406,0.024325847625732422,-3.713660717010498,-4.426721572875977,7.362715244293213,24.639999389648438,-13.720000267028809,-0.7699999809265137,80
11:13:15:508,-0.08543920516967773,0.43840861320495605,-0.03796672821044922,-4.287938117980957,-3.91705060005188,7.29093074798584,-4.829999923706055,6.860000133514404,14.140000343322754,80
11:13:15:547,-0.23680591583251953,-0.3556342124938965,-0.05717325210571289,-4.498506546020508,-4.800002098083496,7.2574310302734375,-3.8499999046325684,5.880000114440918,9.730000495910645,80
11:13:15:590,0.059409141540527344,0.07728719711303711,0.1303730010986328,-4.187439441680908,-4.347758769989014,7.477570533752441,-7.139999866485596,5.740000247955322,2.870000123977661,80
11:13:15:634,-0.1630411148071289,-0.22530841827392578,0.14258337020874023,-4.450649738311768,-4.706681728363037,7.525426864624023,-1.399999976158142,4.760000228881836,0.7699999809265137,80
11:13:15:675,0.05716419219970703,0.7194545269012451,0.8472280502319336,-4.216153621673584,-3.5820553302764893,8.441878318786621,70.13999938964844,-18.40999984741211,-16.8700008392334,80
11:13:15:715,-0.002124786376953125,1.211097002029419,-1.4125871658325195,-4.275973796844482,-2.7876384258270264,5.828916072845459,-87.5,16.8700008392334,14.90999984741211,80
11:13:15:755,-0.29458141326904297,-0.1873340606689453,0.23288202285766602,-4.642076015472412,-4.232903003692627,7.5326056480407715,-20.93000030517578,-9.59000015258789,16.520000457763672,80
11:13:15:795,0.3462696075439453,-0.6437463760375977,-0.030005931854248047,-3.9146575927734375,-4.8502516746521,7.262216091156006,-12.529999732971191,-7.840000152587891,10.710000038146973,80
11:13:15:836,0.30572938919067383,-0.3293142318725586,0.004709720611572266,-3.87876558303833,-4.618147850036621,7.29810905456543,-5.320000171661377,4.550000190734863,2.6600000858306885,80
11:13:15:875,-0.18995332717895508,-0.31896495819091797,0.13010883331298828,-4.421936511993408,-4.687539577484131,7.456035614013672,-5.740000247955322,6.019999980926514,-0.699999988079071,80
11:13:15:916,-0.5271568298339844,0.053023338317871094,0.26871299743652344,-4.890929222106934,-4.302295207977295,7.661818027496338,-4.059999942779541,6.510000228881836,5.53000020980835,80
11:13:15:954,-0.5518951416015625,0.007962226867675781,-0.20808076858520508,-5.053641319274902,-4.34536600112915,7.133004188537598,-19.530000686645508,4.829999923706055,24.780000686645508,80
11:13:15:996,0.2227315902709961,-0.25205516815185547,0.021132469177246094,-4.223331928253174,-4.668396949768066,7.3675007820129395,-5.809999942779541,2.0999999046325684,2.6600000858306885,80
11:13:16:35,0.2528409957885742,-0.2533292770385742,0.4724998474121094,-4.130012035369873,-4.73300313949585,7.93699312210083,-0.2800000011920929,-2.7300000190734863,0.3499999940395355,80
11:13:16:76,-0.23609256744384766,0.43287014961242676,-0.9868664741516113,-4.677968502044678,-3.9385859966278076,6.230910301208496,-19.110000610351562,2.240000009536743,-17.5,80
11:13:16:116,-0.09698963165283203,0.22952651977539062,0.24611997604370117,-4.563112735748291,-4.084547996520996,7.525426864624023,24.989999771118164,16.030000686645508,23.030000686645508,80
11:13:16:155,-0.17713308334350586,-0.009718894958496094,0.7730875015258789,-4.687539577484131,-4.326223373413086,8.24566650390625,-15.75,12.600000381469727,2.6600000858306885,80
11:13:16:196,0.1033182144165039,-0.2298288345336914,0.6644120216369629,-4.381258487701416,-4.603790760040283,8.303093910217285,-4.059999942779541,-0.3499999940395355,1.9600000381469727,80
11:13:16:235,0.021398544311523438,0.11667537689208984,0.3018193244934082,-4.457828521728516,-4.228117942810059,8.015955924987793,-2.5899999141693115,-1.75,1.8200000524520874,80
11:13:16:276,-0.003938198089599609,0.012941837310791016,-0.12033939361572266,-4.484149932861328,-4.328616142272949,7.563712120056152,-8.1899995803833,-4.269999980926514,1.3300000429153442,80
11:13:16:316,0.4562714099884033,0.14052295684814453,-0.2857828140258789,-3.90987229347229,-4.1659040451049805,7.326822757720947,-2.380000114440918,-3.430000066757202,1.0499999523162842,80
11:13:16:362,0.20613384246826172,0.12964677810668945,-0.27648258209228516,-4.108476161956787,-4.144368648529053,7.267002105712891,1.75,1.5399999618530273,1.1200000047683716,80
11:13:16:396,-0.020775794982910156,0.11328840255737305,-0.04890251159667969,-4.340579986572266,-4.132404804229736,7.482356548309326,1.4700000286102295,2.799999952316284,2.450000047683716,80
11:13:16:436,-0.0491633415222168,-0.06633853912353516,-0.0735788345336914,-4.381258487701416,-4.328616142272949,7.4392852783203125,-4.199999809265137,2.240000009536743,5.320000171661377,80
11:13:16:477,-0.016359329223632812,-0.12964153289794922,-0.07991981506347656,-4.35254430770874,-4.4243292808532715,7.412964344024658,-4.340000152587891,0.9800000190734863,4.96999979019165,80
11:13:16:515,0.042426109313964844,-0.09797000885009766,-0.14624881744384766,-4.2831525802612305,-4.417150497436523,7.310072898864746,-7,1.9600000381469727,3.5,80
11:13:16:557,-0.038800716400146484,0.015422344207763672,-0.01745748519897461,-4.374079704284668,-4.299902439117432,7.434500217437744,-6.789999961853027,3.1500000953674316,3.0799999237060547,80
11:13:16:595,-0.0425262451171875,0.05253744125366211,0.06068992614746094,-4.388436794281006,-4.249652862548828,7.527820110321045,-5.880000114440918,3.640000104904175,3.990000009536743,80
11:13:16:638,-0.13547658920288086,0.0056591033935546875,0.008352279663085938,-4.515256404876709,-4.295116424560547,7.477570533752441,-9.100000381469727,1.3300000429153442,4.340000152587891,80
11:13:16:676,0.07347345352172852,0.08301162719726562,0.08899497985839844,-4.287938117980957,-4.1970109939575195,7.5804619789123535,-15.050000190734863,2.940000057220459,6.159999847412109,80
11:13:16:716,0.04346466064453125,-0.10395956039428711,-0.005374431610107422,-4.3070807456970215,-4.409972190856934,7.484748840332031,-10.850000381469727,3.2200000286102295,7.28000020980835,80
11:13:16:756,-0.06285572052001953,-0.2458796501159668,-0.07129812240600586,-4.429114818572998,-4.6133623123168945,7.401000499725342,-17.989999771118164,4.96999979019165,7.28000020980835,80
11:13:16:796,-0.1287693977355957,-0.1450185775756836,-0.014925003051757812,-4.527220726013184,-4.548755645751953,7.45364236831665,-12.039999961853027,1.9600000381469727,6.090000152587891,80
11:13:16:836,-0.1279006004333496,-0.3476400375366211,-0.12488126754760742,-4.5583271980285645,-4.838287353515625,7.312465667724609,-9.59000015258789,0.49000000953674316,4.96999979019165,80
11:13:16:877,-0.01235055923461914,-0.03691530227661133,-0.03290605545043945,-4.445864677429199,-4.5367913246154785,7.396214485168457,-6.159999847412109,0.07000000029802322,3.5,80
11:13:16:916,-0.0022230148315429688,0.016409873962402344,-0.21009349822998047,-4.436293125152588,-4.479363918304443,7.16650390625,-12.949999809265137,-0.3499999940395355,3.3600001335144043,80
11:13:16:956,0.10350561141967773,-0.05004262924194336,-0.1891317367553711,-4.304687976837158,-4.5583271980285645,7.1401824951171875,-15.119999885559082,0.07000000029802322,3.3600001335144043,80
11:13:16:996,0.09429025650024414,-0.053433895111083984,-0.31784582138061523,-4.29033088684082,-4.575077056884766,6.9320068359375,-31.850000381469727,3.009999990463257,4.409999847412109,80
11:13:17:37,0.018004417419433594,-0.3452000617980957,-0.2695903778076172,-4.362115383148193,-4.953143119812012,6.912864685058594,-29.96000099182129,3.640000104904175,4.690000057220459,80
11:13:17:77,-0.06982421875,-0.5154423713684082,-0.28841447830200195,-4.467400074005127,-5.252245903015137,6.821937084197998,-15.890000343322754,2.6600000858306885,5.179999828338623,80
11:13:17:116,0.03793954849243164,-0.1673288345336914,-0.14841842651367188,-4.350151538848877,-4.945964336395264,6.92482852935791,-17.71000099182129,5.25,5.670000076293945,80
11:13:17:157,-0.0021905899047851562,-0.10323476791381836,-0.26804685592651367,-4.390829563140869,-4.907679080963135,6.73818826675415,-17.079999923706055,5.949999809265137,4.619999885559082,80
11:13:17:195,-0.21997737884521484,-0.2912421226501465,-0.27760791778564453,-4.663610935211182,-5.168497085571289,6.6592254638671875,-13.15999984741211,6.789999961853027,4.619999885559082,80
11:13:17:238,-0.21618175506591797,-0.20427942276000977,-0.013432502746582031,-4.713860511779785,-5.132604122161865,6.920042991638184,-6.440000057220459,7.070000171661377,7.840000152587891,80
11:13:17:276,-0.2361154556274414,-0.27445077896118164,-0.05477428436279297,-4.792823314666748,-5.271388053894043,6.8650078773498535,-6.019999980926514,5.740000247955322,4.199999809265137,80
11:13:17:316,-0.031923770904541016,-0.1295909881591797,-0.0533905029296875,-4.596612453460693,-5.158926010131836,6.853044033050537,-6.510000228881836,3.9200000762939453,2.5899999141693115,80
11:13:17:365,0.13334417343139648,-0.10367298126220703,-0.03888368606567383,-4.398008346557617,-5.158926010131836,6.857830047607422,-4.340000152587891,4.550000190734863,3.430000066757202,80
11:13:17:397,0.04541921615600586,-0.1441946029663086,-0.02536487579345703,-4.474578380584717,-5.2354960441589355,6.8650078773498535,-3.3600001335144043,4.619999885559082,3.640000104904175,80
11:13:17:436,-0.12829113006591797,-0.19384002685546875,-0.020291805267333984,-4.680361270904541,-5.333601474761963,6.8650078773498535,-5.039999961853027,2.940000057220459,2.7300000190734863,80
11:13:17:478,-0.1906886100769043,-0.15890073776245117,-0.19617319107055664,-4.790431022644043,-5.338387489318848,6.640083312988281,-3.7799999713897705,1.1200000047683716,1.8899999856948853,80
11:13:17:516,0.0273895263671875,0.06239128112792969,0.11297178268432617,-4.565505504608154,-5.101497650146484,6.977471351623535,-5.53000020980835,0.2800000011920929,1.1200000047683716,80
11:13:17:558,-0.0833730697631836,0.06522655487060547,-0.0531926155090332,-4.697111129760742,-5.082355499267578,6.798008918762207,-5.880000114440918,-0.07000000029802322,1.6100000143051147,80
11:13:17:596,0.029015064239501953,0.1000375747680664,-0.04638242721557617,-4.577469348907471,-5.0225348472595215,6.7932233810424805,-8.960000038146973,-0.9100000262260437,3.569999933242798,80
11:13:17:636,-0.022730350494384766,-0.05588197708129883,-0.2917027473449707,-4.634897232055664,-5.192424774169922,6.474977493286133,-5.670000076293945,1.8899999856948853,5.039999961853027,80
11:13:17:678,0.04115772247314453,-0.08299112319946289,-0.036192893981933594,-4.560719966888428,-5.240281581878662,6.721438884735107,-4.130000114440918,2.5199999809265137,3.8499999046325684,80
11:13:17:716,0.004212379455566406,-0.091278076171875,-0.09978199005126953,-4.596612453460693,-5.271388053894043,6.632904052734375,-1.399999976158142,4.059999942779541,3.5,80
11:13:17:757,-0.025343894958496094,0.005462169647216797,0.12308597564697266,-4.632504463195801,-5.173282146453857,6.886543273925781,-1.1200000047683716,4.480000019073486,3.7799999713897705,80
11:13:17:797,-0.13895893096923828,-0.09708690643310547,0.014241695404052734,-4.780859470367432,-5.300102710723877,6.781259536743164,0.42000001668930054,1.6100000143051147,3.009999990463257,80
11:13:17:837,-0.11499595642089844,-0.02215576171875,0.05159282684326172,-4.785645484924316,-5.230710506439209,6.831508636474609,4.340000152587891,-1.3300000429153442,1.8899999856948853,80
11:13:17:878,-0.10731029510498047,0.1373300552368164,0.012560844421386719,-4.804787635803223,-5.036891937255859,6.795616626739502,5.809999942779541,-6.019999980926514,1.5399999618530273,80
11:13:17:917,-0.02459239959716797,0.019894123077392578,0.10001802444458008,-4.728217601776123,-5.149354457855225,6.908078193664551,5.740000247955322,-8.1899995803833,0.2800000011920929,80
11:13:17:957,0.10666704177856445,0.17479848861694336,0.11064291000366211,-4.570291519165039,-4.950750350952148,6.946363925933838,10.220000267028809,-8.75,-0.2800000011920929,80
11:13:17:996,0.15807580947875977,0.06518316268920898,0.21294116973876953,-4.479363918304443,-5.044069766998291,7.101897716522217,21.84000015258789,-13.859999656677246,-2.5199999809265137,80
11:13:18:39,0.27003002166748047,0.2741999626159668,0.4019780158996582,-4.299902439117432,-4.766502857208252,7.3914289474487305,11.199999809265137,-9.239999771118164,-2.870000123977661,79
11:13:18:77,0.15668201446533203,-0.031407833099365234,0.2488408088684082,-4.374079704284668,-5.079962730407715,7.300501823425293,17.149999618530273,-9.3100004196167,-4.550000190734863,79
11:13:18:118,0.2325439453125,0.25244140625,0.4211268424987793,-4.240081787109375,-4.73300313949585,7.57806921005249,18.059999465942383,-8.539999961853027,-4.269999980926514,79
11:13:18:157,0.26451969146728516,0.21535301208496094,0.28713035583496094,-4.141976356506348,-4.716253280639648,7.515855312347412,4.900000095367432,-6.650000095367432,-4.340000152587891,79
11:13:18:196,0.2901005744934082,0.31010913848876953,0.13782072067260742,-4.043870449066162,-4.543970108032227,7.401000499725342,13.020000457763672,-10.289999961853027,-5.949999809265137,79
11:13:18:239,0.444563627243042,0.3093433380126953,0.3361387252807617,-3.778266668319702,-4.467400074005127,7.683353424072266,3.0799999237060547,-7.139999866485596,-5.740000247955322,79
11:13:18:277,0.34607958793640137,0.2455606460571289,0.19234085083007812,-3.7902309894561768,-4.469792366027832,7.587640762329102,3.2200000286102295,-3.8499999046325684,-3.7100000381469727,79
11:13:18:318,0.16200804710388184,0.25961875915527344,0.16727209091186523,-3.933800458908081,-4.390829563140869,7.6043901443481445,5.039999961853027,-6.159999847412109,-4.340000152587891,79
11:13:18:357,0.21574831008911133,0.14835262298583984,0.2352733612060547,-3.8261232376098633,-4.465007305145264,7.731209754943848,-0.2800000011920929,-4.059999942779541,-2.309999942779541,79
11:13:18:398,0.025200843811035156,0.026798248291015625,0.30498838424682617,-4.01037073135376,-4.579862117767334,7.877171993255615,7.139999866485596,-4.059999942779541,-2.7300000190734863,79
11:13:18:437,0.05078887939453125,0.017609596252441406,0.3224754333496094,-3.972085475921631,-4.584648132324219,7.975277900695801,4.900000095367432,-6.019999980926514,-5.599999904632568,79
11:13:18:479,0.43688249588012695,0.17679929733276367,0.2120380401611328,-3.476771354675293,-4.381258487701416,7.917850017547607,2.799999952316284,-4.619999885559082,-6.090000152587891,79
11:13:18:517,0.36673450469970703,0.24863815307617188,0.09688854217529297,-3.455235719680786,-4.247260093688965,7.82692289352417,-1.6100000143051147,-0.21000000834465027,-4.619999885559082,79
11:13:18:558,0.18044638633728027,0.12042570114135742,-0.025859355926513672,-3.596412420272827,-4.34536600112915,7.697710037231445,2.1700000762939453,-2.5899999141693115,-3.5,79
11:13:18:599,0.2802693843841553,0.2743668556213379,-0.016858577728271484,-3.4265220165252686,-4.122833251953125,7.70249605178833,-7.420000076293945,0.07000000029802322,-1.0499999523162842,79
11:13:18:639,0.27207207679748535,0.02998208999633789,-0.038372039794921875,-3.366701364517212,-4.35972261428833,7.671389579772949,-0.699999988079071,0.6299999952316284,-1.0499999523162842,79
11:13:18:678,0.1564013957977295,0.05269908905029297,0.06310081481933594,-3.4432716369628906,-4.323830604553223,7.788637638092041,-5.949999809265137,2.0999999046325684,1.399999976158142,79
11:13:18:719,-0.010791301727294922,-0.0631246566772461,-0.01460409164428711,-3.613162040710449,-4.455435752868652,7.707281589508057,-4.340000152587891,3.009999990463257,2.309999942779541,79
11:13:18:758,0.05262303352355957,0.029898643493652344,0.1433711051940918,-3.5365920066833496,-4.354937553405762,7.901099681854248,-4.690000057220459,3.990000009536743,2.380000114440918,79
11:13:18:797,0.02869868278503418,0.03349018096923828,0.15681123733520508,-3.5533416271209717,-4.342973232269287,7.953742504119873,-6.300000190734863,3.009999990463257,1.6800000667572021,79
11:13:18:839,0.12824296951293945,0.1244192123413086,0.24413299560546875,-3.421736478805542,-4.2209391593933105,8.102097511291504,-2.0999999046325684,2.240000009536743,1.8899999856948853,79
11:13:18:878,0.008795976638793945,-0.04211997985839844,0.09385061264038086,-3.538984537124634,-4.398008346557617,7.975277900695801,-2.450000047683716,2.1700000762939453,2.309999942779541,79
11:13:18:919,-0.019762754440307617,-0.09686613082885742,0.00042438507080078125,-3.572484016418457,-4.47697114944458,7.8819580078125,-3.7100000381469727,2.309999942779541,2.799999952316284,79
11:13:18:957,-0.09046649932861328,-0.12343502044677734,-0.17194414138793945,-3.665804386138916,-4.534398555755615,7.6666035652160645,-3.7100000381469727,2.1700000762939453,3.2200000286102295,79
11:13:18:999,-0.026430606842041016,-0.06620550155639648,-0.04184246063232422,-3.6083762645721436,-4.493720531463623,7.786244869232178,-6.019999980926514,2.5899999141693115,3.640000104904175,79
11:13:19:39,0.05351114273071289,0.00829172134399414,-0.021988391876220703,-3.515056610107422,-4.417150497436523,7.800601959228516,-7.699999809265137,1.9600000381469727,3.2899999618530273,79
11:13:19:79,0.11172223091125488,0.14063167572021484,0.21977710723876953,-3.428915023803711,-4.249652862548828,8.097311973571777,-3.5,-0.5600000023841858,1.8200000524520874,79
11:13:19:118,0.0013222694396972656,-0.0655207633972168,0.005452156066894531,-3.538984537124634,-4.4721856117248535,7.884350299835205,-2.799999952316284,0.5600000023841858,2.5899999141693115,79
11:13:19:159,-0.03148484230041504,0.01841115951538086,0.013933658599853516,-3.579662799835205,-4.383650779724121,7.896315097808838,-4.480000019073486,0.21000000834465027,2.240000009536743,79
11:13:19:198,-0.007959604263305664,-0.04652738571166992,-0.12859439849853516,-3.5581274032592773,-4.460221290588379,7.7216386795043945,-4.269999980926514,0.07000000029802322,2.380000114440918,79
11:13:19:240,0.020431995391845703,-0.02765035629272461,0.013894081115722656,-3.524627923965454,-4.448256969451904,7.867600917816162,-5.880000114440918,1.2599999904632568,2.6600000858306885,79
11:13:19:279,0.04123115539550781,0.05636405944824219,0.02068614959716797,-3.493520975112915,-4.350151538848877,7.8795647621154785,-4.619999885559082,0.5600000023841858,1.8200000524520874,79
11:13:19:378,0.12104058265686035,0.06806278228759766,0.052919864654541016,-3.383451223373413,-4.321437358856201,7.925028324127197,-2.1700000762939453,-0.7699999809265137,1.2599999904632568,79
11:13:19:383,-0.002708911895751953,-0.05657672882080078,-0.011263370513916016,-3.507878065109253,-4.460221290588379,7.858029365539551,-3.7799999713897705,0.3499999940395355,1.6800000667572021,79
11:13:19:396,0.07631754875183105,0.03513765335083008,-0.009010791778564453,-3.4097721576690674,-4.35972261428833,7.858029365539551,-4.130000114440918,1.2599999904632568,1.9600000381469727,79
11:13:19:439,0.005540370941162109,-0.06951713562011719,-0.020607948303222656,-3.4791641235351562,-4.481756687164307,7.841279983520508,-3.569999933242798,1.4700000286102295,2.0299999713897705,79
11:13:19:479,-0.01279592514038086,0.0362706184387207,0.004570484161376953,-3.500699520111084,-4.366901397705078,7.867600917816162,-3.569999933242798,0.6299999952316284,0.699999988079071,79
11:13:19:519,0.08739042282104492,0.040502071380615234,0.06491231918334961,-3.3786656856536865,-4.35254430770874,7.944170951843262,-2.7300000190734863,0.7699999809265137,0.9800000190734863,79
11:13:19:559,-0.014315128326416016,-0.01736927032470703,-0.05335426330566406,-3.483949899673462,-4.41475772857666,7.812565803527832,-5.039999961853027,1.190000057220459,2.940000057220459,79
11:13:19:598,-0.007623434066772461,0.037789344787597656,0.10854339599609375,-3.4791641235351562,-4.350151538848877,8.001599311828613,-4.130000114440918,0.42000001668930054,2.6600000858306885,79
11:13:19:640,0.0475006103515625,0.020660400390625,0.0581202507019043,-3.4121649265289307,-4.362115383148193,7.9657063484191895,-3.430000066757202,0.8400000333786011,2.0999999046325684,79
11:13:19:678,0.06862854957580566,0.125640869140625,0.01778268814086914,-3.373879909515381,-4.225724697113037,7.929814338684082,-3.7100000381469727,1.190000057220459,2.450000047683716,79
11:13:19:720,0.024274826049804688,0.025856971740722656,0.004654884338378906,-3.4121649265289307,-4.319044589996338,7.917850017547607,-3.5,1.190000057220459,2.799999952316284,79
11:13:19:758,-0.03226518630981445,-0.030999183654785156,-0.032647132873535156,-3.476771354675293,-4.383650779724121,7.872386455535889,-3.430000066757202,1.3300000429153442,3.1500000953674316,79
11:13:19:800,-0.07941126823425293,-0.15305471420288086,0.014081954956054688,-3.5437703132629395,-4.543970108032227,7.922636032104492,-2.450000047683716,0.21000000834465027,2.799999952316284,79
11:13:19:839,-0.046300649642944336,-0.11478662490844727,-0.10550451278686523,-3.5222349166870117,-4.534398555755615,7.776673316955566,-5.25,0.2800000011920929,3.5,79
11:13:19:880,0.037615299224853516,0.021111488342285156,0.0017380714416503906,-3.428915023803711,-4.393222332000732,7.884350299835205,-4.760000228881836,-0.07000000029802322,2.5899999141693115,79
11:13:19:919,0.10857701301574707,-0.011824607849121094,0.016704559326171875,-3.3308091163635254,-4.429114818572998,7.9034929275512695,-3.0799999237060547,-1.399999976158142,1.8200000524520874,79
11:13:19:960,0.10600423812866211,-0.013288021087646484,0.026763439178466797,-3.3068809509277344,-4.433900356292725,7.920242786407471,-2.5899999141693115,-0.5600000023841858,2.0999999046325684,79
11:13:19:999,0.0694894790649414,-0.0010595321655273438,0.0022687911987304688,-3.3260233402252197,-4.421936511993408,7.896315097808838,-4.269999980926514,-0.3499999940395355,2.309999942779541,79
11:13:20:40,0.0632486343383789,0.029780864715576172,-0.026898860931396484,-3.3164520263671875,-4.383650779724121,7.860422611236572,-3.1500000953674316,-0.6299999952316284,2.5199999809265137,79
11:13:20:79,0.11951208114624023,0.08890914916992188,0.009108543395996094,-3.2303104400634766,-4.302295207977295,7.898707389831543,-5.880000114440918,0.14000000059604645,2.0999999046325684,79
11:13:20:120,0.043924570083618164,-0.003528594970703125,-0.0022840499877929688,-3.294916868209839,-4.395615100860596,7.886743545532227,-1.1200000047683716,0.9100000262260437,1.9600000381469727,79
11:13:20:159,-0.031859397888183594,-0.006651878356933594,0.019229412078857422,-3.3786656856536865,-4.4004011154174805,7.913064479827881,-6.579999923706055,1.6100000143051147,2.380000114440918,79
11:13:20:199,0.012797832489013672,-0.014892578125,-0.0037589073181152344,-3.3308091163635254,-4.412364959716797,7.88913631439209,-4.900000095367432,1.4700000286102295,2.5199999809265137,79
11:13:20:242,-0.006989955902099609,-0.09996986389160156,-0.0451207160949707,-3.352344274520874,-4.522434711456299,7.836494445800781,-9.800000190734863,3.5,3.569999933242798,79
11:13:20:279,0.049921512603759766,-0.04360485076904297,0.12470054626464844,-3.2829525470733643,-4.47697114944458,8.037490844726562,-5.460000038146973,2.309999942779541,2.7300000190734863,79
11:13:20:320,-0.01174783706665039,-0.00042724609375,0.09401798248291016,-3.3475589752197266,-4.433900356292725,8.030312538146973,-8.119999885559082,2.870000123977661,2.240000009536743,79
11:13:20:359,0.07291483879089355,0.014972209930419922,0.06372928619384766,-3.2446675300598145,-4.41475772857666,8.015955924987793,-0.49000000953674316,0.9100000262260437,1.6800000667572021,79
11:13:20:399,-0.02589559555053711,-0.039707183837890625,-0.0600438117980957,-3.34995174407959,-4.479363918304443,7.877171993255615,-7.559999942779541,2.450000047683716,2.450000047683716,79
11:13:20:441,0.013740062713623047,-0.10642194747924805,-0.09589147567749023,-3.3068809509277344,-4.572684288024902,7.817351341247559,-6.090000152587891,2.1700000762939453,3.430000066757202,79
11:13:20:480,0.053105831146240234,0.006747245788574219,0.013257026672363281,-3.2542388439178467,-4.457828521728516,7.929814338684082,-8.399999618530273,2.450000047683716,2.870000123977661,79
11:13:20:521,-0.0072858333587646484,0.03411149978637695,-0.08127927780151367,-3.3164520263671875,-4.421936511993408,7.814958095550537,-17.71000099182129,3.640000104904175,4.199999809265137,79
11:13:20:559,0.2009110450744629,0.3756842613220215,-0.022909164428710938,-3.058027505874634,-3.9864425659179688,7.867600917816162,-29.399999618530273,4.900000095367432,5.949999809265137,79
11:13:20:600,0.15307188034057617,0.7695407867431641,0.05249977111816406,-3.067598581314087,-3.400200843811035,7.956134796142578,-105.62999725341797,13.649999618530273,11.829999923706055,79
11:13:20:640,-0.07088255882263184,0.4127209186553955,-1.0682692527770996,-3.3092737197875977,-3.6538403034210205,6.56829833984375,-177.02999877929688,17.920000076293945,15.399999618530273,79
11:13:20:681,0.3663449287414551,1.0135667324066162,-2.4606781005859375,-2.7804601192474365,-2.799602746963501,4.560719966888428,-203.6300048828125,16.940000534057617,33.38999938964844,79
11:13:20:718,-0.09743261337280273,0.5562572479248047,-2.6289615631103516,-3.2685959339141846,-3.1178479194641113,3.735196113586426,-160.5800018310547,31.780000686645508,66.43000030517578,79
11:13:20:769,-3.649951934814453,-5.085285663604736,-3.016270637512207,-7.733603000640869,-10.030712127685547,2.5938196182250977,-80.36000061035156,62.58000183105469,97.16000366210938,79
11:13:20:835,-2.627079963684082,-3.9782581329345703,-2.7499258518218994,-7.3675007820129395,-9.918249130249023,2.172683000564575,252.2100067138672,52.849998474121094,146.9300079345703,79
11:13:20:840,-2.2184338569641113,1.245072364807129,0.06845521926879883,-7.513463020324707,-4.383650779724121,5.008177757263184,159.4600067138672,68.66999816894531,74.41000366210938,79
11:13:20:872,-0.4309377670288086,1.0152006149291992,0.8070673942565918,-5.8337016105651855,-4.35972261428833,5.948556900024414,8.470000267028809,63.77000045776367,24.219999313354492,79
11:13:20:917,-0.002097606658935547,1.583606481552124,-0.42441606521606445,-5.405385971069336,-3.3954150676727295,4.610969543457031,-115.43000030517578,68.52999877929688,31.780000686645508,79
11:13:20:959,-0.960721492767334,-0.6205735206604004,-1.183720588684082,-6.604190349578857,-5.7547383308410645,3.555734634399414,-153.86000061035156,86.59000396728516,54.529998779296875,79
11:13:20:999,-1.413682460784912,0.16013193130493164,-1.5920815467834473,-7.410572052001953,-4.934000015258789,2.7493534088134766,-71.81999969482422,87.22000122070312,79.59000396728516,79
11:13:21:40,-2.9782047271728516,-2.2570600509643555,-1.221980333328247,-9.719645500183105,-7.915457248687744,2.8139593601226807,14.90999984741211,75.04000091552734,82.94999694824219,81
11:13:21:81,-2.598874568939209,2.633516550064087,-0.414792537689209,-9.990034103393555,-2.366501569747925,3.517449140548706,86.59000396728516,62.439998626708984,114.37999725341797,81
11:13:21:120,-0.9784016609191895,2.457122325897217,-1.109022855758667,-8.614161491394043,-1.9286150932312012,2.5459630489349365,-67.05999755859375,65.23999786376953,34.93000030517578,81
11:13:21:161,-1.401026725769043,1.448848009109497,-1.7026920318603516,-9.387042999267578,-2.5746772289276123,1.526620864868164,-131.52999877929688,66.77999877929688,18.549999237060547,81
11:13:21:199,-0.8623971939086914,1.3505043983459473,-1.5976073741912842,-9.06401252746582,-2.335394859313965,1.2323036193847656,-155.9600067138672,35.84000015258789,-1.9600000381469727,81
11:13:21:242,-0.5386905670166016,-0.20789241790771484,-1.7681360244750977,-8.874979019165039,-3.9457647800445557,0.6197410225868225,-114.23999786376953,49,47.18000030517578,81
11:13:21:290,-1.3153400421142578,0.2797083854675293,-2.199354648590088,-9.980463027954102,-3.3882367610931396,-0.3613162040710449,-75.04000091552734,29.1200008392334,69.86000061035156,81
11:13:21:362,-1.2934684753417969,0.19313859939575195,-1.8226542472839355,-10.28195858001709,-3.4265220165252686,-0.44027936458587646,-46.689998626708984,7.699999809265137,74.2699966430664,81
11:13:21:366,-1.2415151596069336,0.2349097728729248,-1.4753516912460327,-10.540384292602539,-3.3260233402252197,-0.4618147313594818,-33.599998474121094,1.190000057220459,63,81
11:13:21:393,-0.7845573425292969,0.21664166450500488,-1.2262235879898071,-10.279565811157227,-3.290131092071533,-0.519242525100708,-28.420000076293945,2.1700000762939453,41.02000045776367,81
11:13:21:437,-0.4362201690673828,0.13694238662719727,-1.107319951057434,-10.040283203125,-3.335594892501831,-0.6771688461303711,-23.8700008392334,1.8899999856948853,21.139999389648438,81
11:13:21:480,-0.11543750762939453,0.09423971176147461,-0.8571420311927795,-9.748359680175781,-3.3547375202178955,-0.6412764191627502,-16.170000076293945,-1.6800000667572021,8.399999618530273,81
11:13:21:521,0.2043600082397461,0.5826704502105713,-0.7182560563087463,-9.377471923828125,-2.720639228820801,-0.6819544434547424,-15.399999618530273,-1.6100000143051147,-2.380000114440918,81
11:13:21:560,0.41425514221191406,0.45656490325927734,-0.7239169478416443,-9.06401252746582,-2.7326035499572754,-0.8685945868492126,-26.809999465942383,2.5199999809265137,-9.9399995803833,81
11:13:21:602,0.4118032455444336,0.1317124366760254,-0.7743878364562988,-8.963513374328613,-3.0245277881622314,-1.112662434577942,-29.889999389648438,6.230000019073486,-15.119999885559082,81
11:13:21:640,0.16864490509033203,-0.0056569576263427734,-0.48551228642463684,-9.164510726928711,-3.16331148147583,-0.9451649785041809,-14.5600004196167,9.800000190734863,-13.020000457763672,81
11:13:21:682,0.06217384338378906,0.06821632385253906,-0.31758224964141846,-9.255437850952148,-3.0723841190338135,-0.8566305041313171,-10.850000381469727,7.559999942779541,-10.569999694824219,81
11:13:21:720,-0.14168739318847656,0.039258718490600586,-0.035840392112731934,-9.494720458984375,-3.091526985168457,-0.5838487148284912,-0.5600000023841858,11.0600004196167,-15.75,81
11:13:21:762,-0.38900184631347656,0.37405920028686523,-0.3100682497024536,-9.839285850524902,-2.6632115840911865,-0.9355936050415039,-1.6100000143051147,6.090000152587891,-24.920000076293945,81
11:13:21:800,-0.08531951904296875,0.12504982948303223,-0.0011153221130371094,-9.556933403015137,-2.8809585571289062,-0.6269195079803467,2.240000009536743,1.3300000429153442,-35.13999938964844,81
11:13:21:843,-0.039542198181152344,0.3144369125366211,-0.28994524478912354,-9.521041870117188,-2.612962245941162,-0.9882357716560364,17.290000915527344,4.199999809265137,-34.58000183105469,81
11:13:21:881,0.11767864227294922,0.30706310272216797,-0.49803805351257324,-9.33440113067627,-2.5435702800750732,-1.3208380937576294,34.15999984741211,4.690000057220459,-31.079999923706055,81
11:13:21:920,0.29514026641845703,0.14993739128112793,-0.057692527770996094,-9.083154678344727,-2.6632115840911865,-0.8949156999588013,61.7400016784668,12.109999656677246,-18.270000457763672,81
11:13:21:961,0.08297157287597656,0.36688923835754395,-0.07103931903839111,-9.274580955505371,-2.3545374870300293,-0.9260223507881165,78.95999908447266,19.8799991607666,0.07000000029802322,81
11:13:22:0,0.07594871520996094,0.5672504901885986,0.23796427249908447,-9.262616157531738,-2.0123636722564697,-0.5575276613235474,69.2300033569336,18.760000228881836,7.559999942779541,82
11:13:22:42,0.12201499938964844,0.44997167587280273,0.05254483222961426,-9.186046600341797,-2.0171494483947754,-0.729810893535614,48.86000061035156,15.399999618530273,11.0600004196167,82
11:13:22:81,-0.3541526794433594,0.3293490409851074,0.6679982542991638,-9.750752449035645,-2.0554347038269043,0.0526420958340168,17.920000076293945,-10.640000343322754,-1.6800000667572021,82
11:13:22:121,0.0669870376586914,-0.3509976863861084,0.4941991865634918,-9.3128662109375,-2.823530912399292,0.0023928226437419653,-15.470000267028809,-10.569999694824219,-6.789999961853027,82
11:13:22:162,0.2565011978149414,-0.23868417739868164,0.11779189109802246,-9.059226989746094,-2.770888566970825,-0.3445664942264557,-34.5099983215332,-13.510000228881836,-11.760000228881836,82
11:13:22:200,0.5076541900634766,-0.8417949676513672,0.18037517368793488,-8.681159973144531,-3.5844480991363525,-0.23688943684101105,-28,-7.840000152587891,-5.880000114440918,82
11:13:22:242,0.2759532928466797,0.04058218002319336,0.10218647122383118,-8.843873023986816,-2.691925525665283,-0.28953152894973755,-9.59000015258789,6.510000228881836,17.149999618530273,82
11:13:22:281,0.052308082580566406,0.31960439682006836,-0.21113234758377075,-9.054441452026367,-2.3330020904541016,-0.6556334495544434,-23.450000762939453,4.760000228881836,19.040000915527344,82
11:13:22:321,0.1873302459716797,-0.383678674697876,-0.310560941696167,-8.872586250305176,-3.13220477104187,-0.8327022790908813,-28.489999771118164,9.100000381469727,20.229999542236328,82
11:13:22:362,-0.21767330169677734,-0.002576112747192383,-0.33076179027557373,-9.332008361816406,-2.75174617767334,-0.9355936050415039,-21.420000076293945,10.640000343322754,20.579999923706055,82
11:13:22:401,-0.1645679473876953,-0.3829982280731201,-0.2569524049758911,-9.32004451751709,-3.2279179096221924,-0.9260223507881165,-30.450000762939453,6.440000057220459,8.609999656677246,82
11:13:22:441,-0.17376708984375,-0.3025698661804199,-0.04476422071456909,-9.372685432434082,-3.2231321334838867,-0.7250252366065979,-20.299999237060547,5.809999942779541,10.779999732971191,82
11:13:22:483,-0.0031023025512695312,-0.12720060348510742,-0.22915148735046387,-9.20279598236084,-3.0795629024505615,-0.9667003750801086,-19.110000610351562,3.569999933242798,10.989999771118164,82
11:13:22:521,-0.05225181579589844,-0.12473130226135254,-0.11823636293411255,-9.265008926391602,-3.1082763671875,-0.8853443264961243,-12.460000038146973,6.510000228881836,13.649999618530273,82
11:13:22:561,-0.1700572967529297,-0.2069835662841797,-0.10990321636199951,-9.425328254699707,-3.242274522781372,-0.9044869542121887,-5.460000038146973,6.929999828338623,14.140000343322754,82
11:13:22:602,-0.1532745361328125,0.0009534358978271484,-0.01900923252105713,-9.446864128112793,-3.0340991020202637,-0.818345308303833,-1.0499999523162842,5.809999942779541,14.350000381469727,82
11:13:22:641,-0.030735015869140625,0.054361820220947266,-0.07454937696456909,-9.332008361816406,-2.967100143432617,-0.8925228118896484,1.3300000429153442,6.440000057220459,13.15999984741211,82
11:13:22:681,-0.0992441177368164,0.1698307991027832,-0.013697326183319092,-9.425328254699707,-2.809173583984375,-0.8350951075553894,0.3499999940395355,1.6800000667572021,9.449999809265137,82
11:13:22:723,-0.7015285491943359,-0.8633780479431152,-0.09901374578475952,-10.202995300292969,-4.058227062225342,-0.9451649785041809,-7.490000247955322,5.53000020980835,-4.690000057220459,82
11:13:22:761,-0.45976734161376953,-1.4372634887695312,-0.3969777822494507,-10.076176643371582,-4.991428375244141,-1.3423734903335571,10.149999618530273,-2.450000047683716,-29.889999389648438,82
11:13:22:802,-0.5573253631591797,-1.6877171993255615,-0.36926722526550293,-10.313065528869629,-5.663811206817627,-1.4069796800613403,9.869999885559082,5.320000171661377,-67.4800033569336,82
11:13:22:841,-0.21614933013916016,-3.218489646911621,-0.8065207004547119,-10.02592658996582,-7.999206066131592,-2.045863389968872,18.34000015258789,-2.5199999809265137,-103.25,82
11:13:22:881,0.5889558792114258,-1.9239435195922852,0.08028721809387207,-9.073582649230957,-7.185646057128906,-1.1389836072921753,63.77000045776367,9.800000190734863,-115.98999786376953,82
11:13:22:923,0.8693294525146484,-1.4109001159667969,-0.13676738739013672,-8.575876235961914,-7.025327682495117,-1.3902300596237183,18.1299991607666,24.149999618530273,-145.80999755859375,82
11:13:22:961,1.1587142944335938,-2.206446647644043,-0.6090352535247803,-7.99681282043457,-8.372486114501953,-2.014756679534912,30.239999771118164,35.4900016784668,-148.61000061035156,82
11:13:23:2,1.3232221603393555,-0.6740307807922363,-0.29771673679351807,-7.501499176025391,-7.008577823638916,-1.777867317199707,41.86000061035156,42.84000015258789,-145.74000549316406,84
11:13:23:41,1.6941118240356445,-0.4722251892089844,-0.2860296964645386,-6.7070817947387695,-6.92482852935791,-1.8376877307891846,23.170000076293945,47.38999938964844,-150.22000122070312,84
11:13:23:81,1.8817105293273926,-1.0381989479064941,-0.08525443077087402,-6.049055576324463,-7.750352382659912,-1.6582260131835938,58.79999923706055,45.56999969482422,-128.58999633789062,84
11:13:23:123,2.1983299255371094,0.5228214263916016,0.4065324068069458,-5.182853698730469,-6.058626651763916,-1.0648061037063599,109.9000015258789,46.83000183105469,-98.06999969482422,84
11:13:23:161,1.8007779121398926,0.6958246231079102,1.2498126029968262,-5.130211353302002,-5.711667537689209,0.09092726558446884,93.66000366210938,34.58000183105469,-55.439998626708984,84
11:13:23:202,1.5325064659118652,0.2637782096862793,0.8543664813041687,-5.015356063842773,-6.077769756317139,-0.09092726558446884,112,33.18000030517578,-21,84
11:13:23:242,0.9905514717102051,0.6513023376464844,1.4549391269683838,-5.309673309326172,-5.5274200439453125,0.8733802437782288,170.10000610351562,11.899999618530273,2.240000009536743,84
11:13:23:283,0.903468132019043,0.398529052734375,2.0311100482940674,-5.170889854431152,-5.680561065673828,1.9573287963867188,135.4499969482422,9.800000190734863,-4.619999885559082,84
11:13:23:322,0.8701725006103516,-0.9082159996032715,2.275735855102539,-4.986642360687256,-7.214360237121582,2.770888566970825,121.52000427246094,-9.520000457763672,-25.40999984741211,84
11:13:23:363,1.4541845321655273,-1.1630239486694336,3.7463319301605225,-4.039084434509277,-7.759923934936523,5.178067684173584,47.040000915527344,-33.880001068115234,-43.33000183105469,84
11:13:23:402,1.6265978813171387,-1.7937493324279785,1.7393983602523804,-3.460021495819092,-8.839086532592773,3.6059837341308594,136.2899932861328,-54.529998779296875,-47.18000030517578,84
11:13:23:479,2.723572254180908,1.2526187896728516,4.134650230407715,-1.6821542978286743,-5.4795637130737305,7.034898281097412,151.8300018310547,-61.810001373291016,-54.810001373291016,84
11:13:23:501,2.418140172958374,0.3550758361816406,2.8387272357940674,-1.3830513954162598,-6.288337707519531,6.448657035827637,86.7300033569336,-63.06999969482422,-65.02999877929688,84
11:13:23:515,2.757643222808838,-0.6692399978637695,2.741888999938965,-0.35413774847984314,-7.479963302612305,7.037291049957275,75.25,-40.25,-56.4900016784668,84
11:13:23:557,2.699993133544922,1.0917272567749023,2.756303310394287,0.2632104754447937,-5.446063995361328,7.740781307220459,59.01000213623047,-36.88999938964844,-51.72999954223633,84
11:13:23:601,1.9245407581329346,1.328974723815918,2.369668960571289,-0.031106693670153618,-4.876572608947754,7.946564197540283,26.809999465942383,-30.65999984741211,-33.67000198364258,84
11:13:23:644,1.6812877655029297,-0.08728933334350586,1.3195428848266602,0.1459621787071228,-6.314659118652344,7.226324081420898,31.290000915527344,-26.18000030517578,-29.190000534057617,84
11:13:23:682,1.1536043882369995,0.8796401023864746,1.0422344207763672,-0.0933200791478157,-5.127819538116455,7.209574222564697,2.0299999713897705,-15.119999885559082,-12.600000381469727,84
11:13:23:723,1.2923352718353271,0.5620579719543457,0.7629594802856445,0.3684946894645691,-5.304887294769287,7.121039390563965,6.440000057220459,-18.40999984741211,-7.699999809265137,84
11:13:23:762,1.1180955171585083,0.5070738792419434,0.9013352394104004,0.4737788736820221,-5.233102798461914,7.484748840332031,-12.880000114440918,-14.350000381469727,4.550000190734863,84
11:13:23:803,0.6781652569770813,-0.39641523361206055,1.012035846710205,0.20338992774486542,-6.235695838928223,7.848458290100098,-4.829999923706055,-7.630000114440918,8.819999694824219,84
11:13:23:843,0.7186439037322998,-0.21950483322143555,0.6316022872924805,0.42352959513664246,-6.113661766052246,7.625925540924072,-1.3300000429153442,-5.039999961853027,3.990000009536743,84
11:13:23:884,0.662971019744873,0.1976761817932129,0.4401974678039551,0.5335994362831116,-5.647061824798584,7.544569969177246,-6.019999980926514,1.0499999523162842,8.539999961853027,84
11:13:23:923,0.47103482484817505,0.31702470779418945,0.8096652030944824,0.45942193269729614,-5.44845724105835,8.116454124450684,6.019999980926514,-2.7300000190734863,9.65999984741211,84
11:13:23:963,0.478283554315567,0.5139589309692383,0.7970438003540039,0.5862415432929993,-5.12303352355957,8.303093910217285,-5.460000038146973,5.809999942779541,18.899999618530273,84
11:13:24:2,0.12994477152824402,-0.6167893409729004,0.1092996597290039,0.27038896083831787,-6.4079790115356445,7.642674922943115,-5.320000171661377,1.8200000524520874,10.640000343322754,85
11:13:24:44,0.2762390375137329,-0.24266386032104492,0.028098106384277344,0.48574298620224,-6.094519138336182,7.568498134613037,-2.6600000858306885,8.890000343322754,4.829999923706055,85
11:13:24:83,-0.0642332136631012,0.22126245498657227,0.3230166435241699,0.12921242415905,-5.575276851654053,7.944170951843262,-11.199999809265137,9.029999732971191,6.510000228881836,85
11:13:24:124,0.030926525592803955,0.16743898391723633,0.007645606994628906,0.23210379481315613,-5.587240695953369,7.630711555480957,2.0299999713897705,6.929999828338623,3.640000104904175,85
11:13:24:163,-0.17242737114429474,0.28134870529174805,-0.10682487487792969,-0.014356935396790504,-5.402993679046631,7.489534854888916,-6.369999885559082,3.569999933242798,-1.399999976158142,85
11:13:24:202,0.3521081805229187,-0.324312686920166,0.4199037551879883,0.5982056856155396,-6.089733123779297,8.12123966217041,-7.210000038146973,2.5899999141693115,-4.059999942779541,85
11:13:24:245,-0.07245121896266937,-0.21925067901611328,-0.0698995590209961,0.15553347766399384,-6.039484024047852,7.613961696624756,-19.8799991607666,19.530000686645508,10.920000076293945,85
11:13:24:283,-0.2666151225566864,-0.38788318634033203,0.003421783447265625,-0.1052841916680336,-6.305087566375732,7.688138484954834,-5.880000114440918,15.960000038146973,11.550000190734863,85
11:13:24:324,0.11021752655506134,-0.36964893341064453,0.27456235885620117,0.2991028428077698,-6.379265785217285,8.02791976928711,-20.719999313354492,37.45000076293945,33.11000061035156,85
11:13:24:363,-1.0814377069473267,0.11584711074829102,-0.05408906936645508,-1.1629117727279663,-5.864808082580566,7.685746192932129,-14.489999771118164,28.90999984741211,28.559999465942383,85
11:13:24:404,-0.727323591709137,-0.2863454818725586,-0.22895431518554688,-0.9906285405158997,-6.338587284088135,7.45364236831665,1.399999976158142,26.530000686645508,23.520000457763672,85
11:13:24:444,-0.5684590935707092,0.5079126358032227,-0.20230627059936523,-0.973878800868988,-5.417350769042969,7.429713726043701,-4.900000095367432,30.239999771118164,24.010000228881836,85
11:13:24:485,-0.399253785610199,-0.4703998565673828,0.03149557113647461,-0.9044869542121887,-6.51326322555542,7.671389579772949,-3.009999990463257,12.180000305175781,9.170000076293945,85
11:13:24:523,0.18787536025047302,-0.4548044204711914,0.41570472717285156,-0.27038896083831787,-6.611368656158447,8.159524917602539,-11.480000495910645,-6.090000152587891,3.7799999713897705,85
11:13:24:564,0.008645176887512207,0.5569143295288086,-1.193099021911621,-0.44745784997940063,-5.460421085357666,6.252446174621582,9.9399995803833,-14.699999809265137,-8.819999694824219,85
11:13:24:603,-0.5003622770309448,0.8188118934631348,0.2706451416015625,-1.0815558433532715,-4.993820667266846,7.783851623535156,36.470001220703125,-14.980000495910645,-28.489999771118164,85
11:13:24:660,-0.8405691981315613,1.386296272277832,0.5323691368103027,-1.6319050788879395,-4.0797624588012695,8.178668022155762,-28.280000686645508,-3.5,-14.699999809265137,85
11:13:24:685,-0.494429349899292,-0.8588204383850098,0.9063739776611328,-1.4093725681304932,-6.539584159851074,8.779266357421875,-6.159999847412109,-18.829999923706055,-14.630000114440918,85
11:13:24:727,0.5481858253479004,-0.3290901184082031,0.4532747268676758,-0.22971096634864807,-6.092126369476318,8.439485549926758,-39.47999954223633,-11.0600004196167,12.670000076293945,85
11:13:24:765,1.0989677906036377,-0.4489555358886719,-0.4853963851928711,0.5958128571510315,-6.324230670928955,7.379465103149414,-21.700000762939453,5.039999961853027,23.65999984741211,85
11:13:24:804,0.74134761095047,-0.31322145462036133,-1.088935375213623,0.42352959513664246,-6.2668023109436035,6.503692150115967,-34.29999923706055,28.700000762939453,42.70000076293945,85
11:13:24:844,-0.5286771059036255,-0.4592313766479492,-0.8577489852905273,-0.9786643981933594,-6.527620315551758,6.52044153213501,-12.739999771118164,42.90999984741211,43.04999923706055,85
11:13:24:885,-0.9493626356124878,-1.0335469245910645,0.3187861442565918,-1.636690616607666,-7.36032247543335,7.776673316955566,-27.09000015258789,42.4900016784668,23.799999237060547,85
11:13:24:924,-1.7721327543258667,-0.28510236740112305,0.16505908966064453,-2.902493953704834,-6.6831536293029785,7.664210796356201,16.450000762939453,10.079999923706055,11.829999923706055,85
11:13:24:965,-0.8434287309646606,0.7635035514831543,0.13204717636108398,-2.1846470832824707,-5.443671703338623,7.664210796356201,0.5600000023841858,4.340000152587891,18.690000534057617,85
11:13:25:4,-0.8163981437683105,1.6866159439086914,-0.6562371253967285,-2.3617160320281982,-4.098905563354492,6.711867332458496,29.96000099182129,-2.0999999046325684,38.43000030517578,84
11:13:25:46,-0.7832880020141602,0.5299901962280273,0.4206538200378418,-2.524427890777588,-5.12303352355957,7.893921852111816,-10.220000267028809,-5.460000038146973,48.5099983215332,84
11:13:25:84,-1.8421845436096191,-1.113156795501709,-0.3660097122192383,-4.043870449066162,-7.044469833374023,7.015756130218506,0.8400000333786011,-16.309999465942383,42.42000198364258,84
11:13:25:126,-0.5434181690216064,-1.0647225379943848,-0.31769275665283203,-2.8809585571289062,-7.262216091156006,6.984649658203125,-24.639999389648438,-24.920000076293945,11.0600004196167,84
11:13:25:164,0.5013376474380493,-0.9226059913635254,-0.08187150955200195,-1.710868239402771,-7.350750923156738,7.200003147125244,-45.779998779296875,-25.40999984741211,-5.320000171661377,84
11:13:25:206,0.7207512855529785,0.10227441787719727,-0.34115028381347656,-1.3112668991088867,-6.300302028656006,6.8554368019104,-47.529998779296875,-33.7400016784668,-20.15999984741211,84
11:13:25:245,1.248505711555481,0.20050334930419922,-0.26526355743408203,-0.4713860750198364,-6.151947498321533,6.8650078773498535,-137.8300018310547,-13.649999618530273,-6.090000152587891,84
11:13:25:286,0.4819549322128296,0.8667645454406738,-1.691932201385498,-1.117448091506958,-5.26899528503418,5.015356063842773,-186.8300018310547,7.349999904632568,6.929999828338623,84
11:13:25:325,0.29559385776519775,-0.9011650085449219,-1.0874638557434082,-1.2299107313156128,-7.262216091156006,5.347958564758301,-220.00999450683594,-4.059999942779541,-3.009999990463257,84
11:13:25:401,-0.28037476539611816,-2.847672462463379,-2.0376687049865723,-1.8759729862213135,-9.920641899108887,3.888336658477783,-235.1300048828125,-9.59000015258789,7.559999942779541,84
11:13:25:423,-0.40998291969299316,-2.4944496154785156,-2.751889944076538,-2.108076810836792,-10.191031455993652,2.486142873764038,-209.64999389648438,-6.369999885559082,13.09000015258789,84
11:13:25:438,0.17163503170013428,-0.7627778053283691,-4.272739410400391,-1.4835500717163086,-8.650053977966309,-0.10289137810468674,-143.00999450683594,-8.260000228881836,10.989999771118164,84
11:13:25:482,0.03776669502258301,-2.2220277786254883,-4.258550643920898,-1.6079767942428589,-10.664811134338379,-1.1533405780792236,-40.67000198364258,-2.0999999046325684,11.760000228881836,84
11:13:25:525,0.5623770952224731,-0.46826839447021484,-3.04121732711792,-0.9427721500396729,-9.028119087219238,-0.696311354637146,22.96000099182129,2.940000057220459,18.899999618530273,84
11:13:25:566,0.2412475347518921,-0.3535585403442383,-1.6500422954559326,-1.2035897970199585,-9.001798629760742,0.28235307335853577,49.209999084472656,4.760000228881836,18.899999618530273,84
11:13:25:605,0.24085450172424316,-0.7499256134033203,-0.5658161640167236,-1.1437692642211914,-9.585646629333496,1.2251251935958862,35.06999969482422,-2.450000047683716,16.59000015258789,84
11:13:25:647,-0.38159382343292236,-0.6765117645263672,-0.38756823539733887,-1.8616160154342651,-9.681360244750977,1.306481122970581,52.150001525878906,-8.890000343322754,15.75,84
11:13:25:685,-0.16361987590789795,0.05412483215332031,0.48627686500549316,-1.6845470666885376,-8.9371919631958,2.3018953800201416,22.96000099182129,-6.510000228881836,9.029999732971191,84
11:13:25:726,-0.4333486557006836,-0.5845775604248047,0.13059663772583008,-2.062613010406494,-9.722038269042969,1.978864312171936,-36.959999084472656,-13.720000267028809,-0.8400000333786011,84
11:13:25:765,-0.2643657922744751,-1.6851301193237305,-0.330059289932251,-1.9597216844558716,-11.243873596191406,1.435693621635437,-22.75,-22.68000030517578,1.8899999856948853,84
11:13:25:806,0.42978382110595703,0.34984302520751953,-0.1491919755935669,-1.1581261157989502,-9.121439933776855,1.5792629718780518,-37.59000015258789,-11.760000228881836,1.1200000047683716,84
11:13:25:846,0.24045705795288086,-0.3652305603027344,-2.249922752380371,-1.2873386144638062,-9.927821159362793,-1.0839486122131348,-62.29999923706055,10.010000228881836,3.2899999618530273,84
11:13:25:885,-0.2689706087112427,1.3942770957946777,-0.7911242246627808,-1.864008903503418,-7.81974458694458,0.17706887423992157,46.20000076293945,17.56999969482422,27.93000030517578,84
11:13:25:927,-1.5207003355026245,1.0024809837341309,0.5309696197509766,-3.4959137439727783,-7.960920810699463,1.6319050788879395,8.119999885559082,24.360000610351562,39.130001068115234,84
11:13:25:965,-2.190917730331421,-2.0828018188476562,-0.7582358121871948,-4.713860511779785,-11.566904067993164,0.15314064919948578,15.680000305175781,8.1899995803833,29.96000099182129,84
11:13:26:6,-0.7075493335723877,0.5772686004638672,0.7908197641372681,-3.407379388809204,-8.762516975402832,1.8999011516571045,39.34000015258789,-4.760000228881836,20.93000030517578,83
11:13:26:46,-0.16595959663391113,0.8772087097167969,-0.32447320222854614,-2.9072794914245605,-8.243274688720703,0.7034898400306702,-7.490000247955322,-1.8200000524520874,16.729999542236328,83
11:13:26:86,-0.07151150703430176,-0.33193206787109375,-0.8185418844223022,-2.830709218978882,-9.535398483276367,0.004785645287483931,-8.819999694824219,12.039999961853027,18.899999618530273,83
11:13:26:127,0.5725817680358887,-0.26937389373779297,-0.22986823320388794,-2.043470621109009,-9.540184020996094,0.5359922647476196,-9.029999732971191,22.889999389648438,12.600000381469727,83
11:13:26:165,0.4676368236541748,-0.8835744857788086,0.7387778759002686,-2.031506299972534,-10.37527847290039,1.6893328428268433,-3.1500000953674316,23.3799991607666,11.970000267028809,83
11:13:26:207,0.3166816234588623,-0.6130609512329102,1.4754096269607544,-2.1032910346984863,-10.25802993774414,2.7948169708251953,54.810001373291016,1.5399999618530273,10.010000228881836,83
11:13:26:246,0.30503034591674805,1.268754005432129,1.0693005323410034,-2.038684844970703,-8.059026718139648,2.6560330390930176,18.270000457763672,-6.159999847412109,18.200000762939453,83
11:13:26:286,-1.08829927444458,0.5555820465087891,0.3060483932495117,-3.704089403152466,-8.63330364227295,1.9692929983139038,43.81999969482422,-12.460000038146973,23.65999984741211,83
11:13:26:327,-1.2649767398834229,-0.1317272186279297,-0.40026628971099854,-4.1970109939575195,-9.353544235229492,1.1629117727279663,2.5199999809265137,-1.399999976158142,24.780000686645508,83
11:13:26:366,-1.4216325283050537,-0.0958099365234375,-0.6571223735809326,-4.709074974060059,-9.34157943725586,0.7417750358581543,-17.989999771118164,14.699999809265137,11.760000228881836,83
11:13:26:406,-0.6740555763244629,0.08989238739013672,0.06197941303253174,-4.130012035369873,-9.133403778076172,1.4763716459274292,-8.399999618530273,20.15999984741211,3.3600001335144043,83
11:13:26:448,0.03694748878479004,0.37819480895996094,-0.04421532154083252,-3.4097721576690674,-8.7505521774292,1.3591231107711792,-12.390000343322754,30.030000686645508,1.2599999904632568,83
11:13:26:487,0.9024596214294434,0.9725461006164551,0.5350767374038696,-2.3186452388763428,-7.913064479827881,2.0721843242645264,-10.220000267028809,24.219999313354492,4.269999980926514,83
11:13:26:526,0.6817684173583984,0.3415851593017578,0.43189001083374023,-2.368894338607788,-8.45862865447998,2.076970100402832,-19.46000099182129,24.780000686645508,9.9399995803833,83
11:13:26:567,0.27933263778686523,-0.7451162338256836,-0.4852759838104248,-2.7014968395233154,-9.731609344482422,1.038485050201416,10.220000267028809,13.859999656677246,17.290000915527344,83
11:13:26:606,-0.3565540313720703,1.346879482269287,0.6473928689956665,-3.4265220165252686,-7.302894115447998,2.3330020904541016,34.86000061035156,-3.9200000762939453,23.940000534057617,83
11:13:26:647,-2.073160409927368,-0.4711313247680664,-0.03722071647644043,-5.661418437957764,-9.238687515258789,1.6390833854675293,-14.699999809265137,7.490000247955322,23.309999465942383,83
11:13:26:688,-1.9322667121887207,-1.2096080780029297,-0.7744229435920715,-6.003591537475586,-10.279565811157227,0.7082754969596863,11.40999984741211,6.650000095367432,7.139999866485596,83
11:13:26:727,-0.3474879264831543,-0.13881301879882812,-0.3821704387664795,-4.505684852600098,-9.243474006652832,1.0049854516983032,-15.260000228881836,15.539999961853027,-15.119999885559082,83
11:13:26:766,0.6446821689605713,0.9800772666931152,0.93470299243927,-3.352344274520874,-7.8795647621154785,2.555534601211548,-21.06999969482422,25.829999923706055,-17.079999923706055,83
11:13:26:808,0.9923956394195557,2.2924976348876953,0.6884204149246216,-2.7565319538116455,-5.994020462036133,2.4813570976257324,-87.22000122070312,34.58000183105469,-17.71000099182129,83
11:13:26:847,1.4409359693527222,-1.8107500076293945,-1.0017269849777222,-1.947757601737976,-10.549955368041992,0.5407779216766357,-57.959999084472656,11.0600004196167,9.380000114440918,83
11:13:26:887,-0.23317408561706543,2.215290069580078,0.2744314670562744,-3.680161237716675,-5.9700927734375,1.8855443000793457,12.25,-21.770000457763672,25.40999984741211,83
11:13:26:928,-1.241295337677002,-1.261866569519043,-0.8084114789962769,-4.998606204986572,-9.762716293334961,0.6005984544754028,-108.36000061035156,-20.790000915527344,-8.329999923706055,83
11:13:26:966,0.25123143196105957,-1.1932621002197266,-2.6222434043884277,-3.4432716369628906,-9.992427825927734,-1.868794322013855,-95.19999694824219,-14.069999694824219,6.860000133514404,83
11:13:27:6,0.570436954498291,0.2762584686279297,-0.9071263074874878,-2.981456995010376,-8.453842163085938,-0.380458801984787,-90.51000213623047,-1.8899999856948853,17.079999923706055,83
11:13:27:48,0.6688323020935059,-1.074946403503418,-1.3937771320343018,-2.715853452682495,-10.073783874511719,-1.215553879737854,-136.0800018310547,31.850000381469727,8.470000267028809,83
11:13:27:87,0.5542082786560059,-1.1011524200439453,-3.320246934890747,-2.691925525665283,-10.37527847290039,-3.972085475921631,-56.06999969482422,33.040000915527344,18.6200008392334,83
11:13:27:128,0.5448224544525146,0.08577823638916016,-1.6990686655044556,-2.565105676651001,-9.166903495788574,-2.775674343109131,-40.040000915527344,37.939998626708984,-0.699999988079071,83
11:13:27:166,0.06066322326660156,-0.5018253326416016,-2.2857558727264404,-3.0340991020202637,-9.879963874816895,-3.933800458908081,-57.400001525878906,42.77000045776367,-27.09000015258789,83
11:13:27:207,-0.6367738246917725,-0.9833946228027344,-0.9978164434432983,-3.8907296657562256,-10.607381820678711,-2.895315170288086,9.100000381469727,6.019999980926514,-26.950000762939453,83
11:13:27:248,-1.2751221656799316,1.5046510696411133,1.1255760192871094,-4.847858428955078,-7.743173599243164,-0.4905286431312561,111.2300033569336,-33.7400016784668,-9.59000015258789,83
11:13:27:287,-1.6307461261749268,0.8725528717041016,0.8277190327644348,-5.61116886138916,-8.157133102416992,-0.5814558863639832,41.5099983215332,-26.530000686645508,-18.6200008392334,83
11:13:27:328,-0.0909576416015625,0.7784414291381836,0.918685793876648,-4.094119548797607,-8.056633949279785,-0.26081767678260803,52.63999938964844,-8.609999656677246,-8.819999694824219,83
11:13:27:367,0.8250207901000977,0.49832725524902344,0.5052376985549927,-2.971885919570923,-8.212166786193848,-0.5479563474655151,-2.6600000858306885,22.049999237060547,-1.2599999904632568,83
11:13:27:409,0.5528185367584229,0.6915426254272461,0.11896568536758423,-3.1058835983276367,-7.846065521240234,-0.9044869542121887,-8.260000228881836,24.010000228881836,0.8400000333786011,83
11:13:27:447,0.30251383781433105,0.3177804946899414,0.11240088939666748,-3.280559778213501,-8.140382766723633,-0.882951557636261,-19.25,19.739999771118164,9.170000076293945,83
11:13:27:488,0.26306796073913574,-0.1515979766845703,-0.16084718704223633,-3.2542388439178467,-8.647661209106445,-1.196411371231079,-3.7100000381469727,12.739999771118164,29.329999923706055,83
11:13:27:528,-0.4499645233154297,-0.1921062469482422,-0.24544739723205566,-4.0797624588012695,-8.73619556427002,-1.3423734903335571,96.04000091552734,-10.430000305175781,49.349998474121094,83
11:13:27:567,0.06499361991882324,0.6101040840148926,1.2508212327957153,-3.548555850982666,-7.781459331512451,0.4666004180908203,14.84000015258789,-17.5,22.610000610351562,83
11:13:27:615,0.12090826034545898,-2.300990104675293,-3.208796501159668,-3.462414264678955,-11.267801284790039,-4.7952165603637695,-43.68000030517578,-9.800000190734863,-3.2200000286102295,83
11:13:27:687,0.19243931770324707,-1.603424072265625,0.8460850119590759,-3.3427734375,-10.971091270446777,-0.5288137793540955,66.5,-12.600000381469727,-10.989999771118164,83
11:13:27:692,-0.7246930599212646,1.7015891075134277,1.8311655521392822,-4.441079139709473,-7.240681171417236,0.9140582084655762,-19.950000762939453,2.1700000762939453,-26.25,83
11:13:27:721,0.1208643913269043,0.8042216300964355,2.4431183338165283,-3.565305471420288,-7.93699312210083,2.1367905139923096,-125.72000122070312,4.199999809265137,-42.84000015258789,83
11:13:27:764,0.1904900074005127,3.4803080558776855,-0.6756958961486816,-3.4480574131011963,-4.390829563140869,-1.1509476900100708,-221.75999450683594,47.599998474121094,-42.560001373291016,83
11:13:27:807,0.8262107372283936,-2.805387496948242,-5.10223388671875,-2.6057839393615723,-11.3778715133667,-6.853044033050537,-317.5899963378906,25.34000015258789,-97.44000244140625,83
11:13:27:849,0.9921355247497559,0.3265390396118164,-3.8214480876922607,-2.1918253898620605,-8.164310455322266,-6.527620315551758,-131.74000549316406,3.009999990463257,-25.1299991607666,83
11:13:27:887,1.6359819173812866,1.2872729301452637,-2.4790525436401367,-1.1389836072921753,-6.881758213043213,-5.804987907409668,-205.94000244140625,61.25,-37.17000198364258,83
11:13:27:928,0.7057943344116211,-1.4051179885864258,-5.694988250732422,-1.8927226066589355,-9.92542839050293,-10.444670677185059,-2.0299999713897705,24.71000099182129,-8.260000228881836,83
11:13:27:967,0.6565196514129639,0.5355668067932129,-1.502748966217041,-1.777867317199707,-7.850851535797119,-6.628118515014648,94.63999938964844,-0.9800000190734863,29.96000099182129,83
11:13:28:8,0.08685064315795898,0.3269972801208496,0.28135061264038086,-2.3258235454559326,-7.977671146392822,-4.773681163787842,94.29000091552734,-14.699999809265137,12.529999732971191,82
11:13:28:47,1.0859514474868774,-1.4880342483520508,-2.4261674880981445,-1.0552347898483276,-10.164710998535156,-8.087740898132324,173.52999877929688,-26.18000030517578,45.92000198364258,82
11:13:28:89,0.48208093643188477,2.350950241088867,0.972567081451416,-1.5385849475860596,-5.737988471984863,-4.445864677429199,235.69000244140625,-15.050000190734863,81.69000244140625,82
11:13:28:127,-0.9926009178161621,0.10624313354492188,2.2845749855041504,-3.2614171504974365,-7.956134796142578,-2.562713146209717,11.270000457763672,8.470000267028809,36.2599983215332,82
11:13:28:168,-0.9299929141998291,-3.3625850677490234,-0.17273950576782227,-3.431307554244995,-12.265608787536621,-5.063212871551514,63.77000045776367,-15.819999694824219,49.06999969482422,82
11:13:28:207,1.0975219011306763,1.3375310897827148,-0.08459234237670898,-1.129412293434143,-7.231109619140625,-4.996213912963867,174.02000427246094,-34.15999984741211,96.45999908447266,82
11:13:28:250,-0.9481844902038574,4.509946346282959,3.942697048187256,-3.4121649265289307,-2.9312076568603516,0.016749758273363113,53.34000015258789,20.229999542236328,43.2599983215332,82
11:13:28:288,-2.915916681289673,-1.0532617568969727,2.7732203006744385,-6.1088762283325195,-8.757731437683105,-0.45942193269729614,-79.0999984741211,6.720000267028809,29.1200008392334,82
11:13:28:329,-1.036780834197998,-0.4521002769470215,1.8720955848693848,-4.488935470581055,-8.2695951461792,-0.8925228118896484,-68.25,-7.840000152587891,33.7400016784668,82
11:13:28:368,-0.796881914138794,0.29108190536499023,1.7350444793701172,-4.448256969451904,-7.45364236831665,-0.5958128571510315,-37.52000045776367,-27.649999618530273,68.5999984741211,82
11:13:28:407,-1.0662996768951416,2.4859471321105957,1.6675171852111816,-4.984249591827393,-4.6372904777526855,-0.24646073579788208,-8.470000267028809,-49.06999969482422,96.5999984741211,82
11:13:28:449,-1.3258614540100098,1.9906721115112305,0.5300254821777344,-5.575276851654053,-4.634897232055664,-1.2514461278915405,-41.58000183105469,-42.279998779296875,124.11000061035156,82
11:13:28:489,-3.105116367340088,1.7992773056030273,-0.2268275022506714,-8.130810737609863,-4.376472473144531,-2.0650060176849365,-60.76000213623047,-35.630001068115234,134.47000122070312,82
11:13:28:566,-3.0334858894348145,1.1273975372314453,-0.43605828285217285,-8.817551612854004,-4.766502857208252,-2.383251428604126,-45.779998779296875,-86.87000274658203,118.30000305175781,82
11:13:28:587,-3.104435920715332,1.4187679290771484,0.18523156642913818,-9.664610862731934,-4.120440483093262,-1.7156537771224976,-20.020000457763672,-77.9800033569336,143.14999389648438,82
11:13:28:600,-3.7622733116149902,1.1809568405151367,-0.22700941562652588,-11.263016700744629,-4.063012599945068,-2.1846470832824707,-69.2300033569336,-63.84000015258789,147.6999969482422,82
11:13:28:644,-3.021304130554199,0.8069391250610352,-0.635286808013916,-11.277373313903809,-4.23529577255249,-2.75174617767334,-109.19999694824219,-47.31999969482422,139.02000427246094,82
11:13:28:680,-2.2428455352783203,0.5728092193603516,-1.0365643501281738,-11.059626579284668,-4.326223373413086,-3.4121649265289307,-70.9800033569336,-38.36000061035156,121.0999984741211,82
11:13:28:724,-1.5186223983764648,0.596074104309082,-0.7354531288146973,-10.715059280395508,-4.153940200805664,-3.294916868209839,-29.329999923706055,-32.7599983215332,105.84000396728516,82
11:13:28:766,-0.7018775939941406,1.0434794425964355,0.006971836090087891,-10.073783874511719,-3.445664882659912,-2.550748825073242,-26.46000099182129,-18.829999923706055,81.2699966430664,82
11:13:28:809,-0.4791879653930664,0.901782751083374,0.061090946197509766,-9.970890998840332,-3.3619158267974854,-2.4813570976257324,-39.27000045776367,-1.1200000047683716,53.970001220703125,82
11:13:28:847,-0.29529571533203125,0.42088770866394043,0.20775628089904785,-9.860822677612305,-3.73758864402771,-2.282752752304077,-36.189998626708984,3.7100000381469727,35,82
11:13:28:888,0.07578849792480469,0.6315057277679443,0.23894691467285156,-9.470791816711426,-3.369094133377075,-2.1918253898620605,-27.719999313354492,6.650000095367432,21.90999984741211,82
11:13:28:925,-0.04082489013671875,0.48606181144714355,0.3921544551849365,-9.597611427307129,-3.3930225372314453,-1.9405791759490967,-26.530000686645508,10.010000228881836,6.510000228881836,82
11:13:28:968,0.37699127197265625,0.45202016830444336,0.5817197561264038,-9.08554744720459,-3.314059257507324,-1.6055840253829956,-19.739999771118164,10.149999618530273,-10.850000381469727,82
11:13:29:7,-0.17122840881347656,0.4037299156188965,0.5974595546722412,-9.67657470703125,-3.2614171504974365,-1.4404792785644531,-7.349999904632568,14.980000495910645,-22.260000228881836,82
11:13:29:49,-0.169525146484375,0.5890655517578125,0.3669407367706299,-9.717252731323242,-2.9288151264190674,-1.5792629718780518,3.5,11.40999984741211,-30.8700008392334,82
11:13:29:87,0.31805896759033203,0.8789896965026855,0.806573748588562,-9.150154113769531,-2.4191436767578125,-0.9379864931106567,15.470000267028809,-0.7699999809265137,-40.95000076293945,82
11:13:29:129,0.18170642852783203,1.128157138824463,0.9611116051673889,-9.241080284118652,-1.887937068939209,-0.5431707501411438,13.720000267028809,9.9399995803833,-38.709999084472656,82
11:13:29:167,0.08602237701416016,0.7800133228302002,0.24629676342010498,-9.315258979797363,-2.0410776138305664,-1.196411371231079,1.3300000429153442,16.65999984741211,-37.099998474121094,82
11:13:29:207,0.08413219451904297,0.6010394096374512,0.030497074127197266,-9.29611587524414,-2.069791555404663,-1.4045867919921875,5.949999809265137,19.809999465942383,-33.25,82
11:13:29:249,-0.03989219665527344,0.4770030975341797,-0.15171408653259277,-9.430113792419434,-2.0745770931243896,-1.6247265338897705,12.25,21.489999771118164,-26.530000686645508,82
11:13:29:288,-0.05871391296386719,0.2437758445739746,-0.15582799911499023,-9.463613510131836,-2.2468602657318115,-1.6677974462509155,13.440000534057617,14.140000343322754,-22.610000610351562,82
11:13:29:329,0.008542060852050781,0.4170745611190796,-0.0806344747543335,-9.394222259521484,-1.9692929983139038,-1.6127625703811646,13.369999885559082,10.289999961853027,-20.440000534057617,82
11:13:29:371,-0.03336524963378906,0.17094755172729492,-0.12002098560333252,-9.44447135925293,-2.172683000564575,-1.6821542978286743,10.779999732971191,5.809999942779541,-19.110000610351562,82
11:13:29:408,-0.07837677001953125,0.23438525199890137,-0.004132509231567383,-9.509077072143555,-2.0506489276885986,-1.5672988891601562,11.270000457763672,5.25,-15.260000228881836,82
11:13:29:449,-0.09332942962646484,0.1511373519897461,-0.04733395576477051,-9.547362327575684,-2.0961124897003174,-1.6223337650299072,6.789999961853027,6.090000152587891,-10.710000038146973,82
11:13:29:488,0.23161792755126953,0.1170811653137207,0.025303363800048828,-9.164510726928711,-2.100898265838623,-1.5433706045150757,1.0499999523162842,3.9200000762939453,-8.890000343322754,82
11:13:29:529,0.2006082534790039,-0.13413190841674805,0.18486905097961426,-9.145368576049805,-2.3856441974639893,-1.3375877141952515,9.869999885559082,2.940000057220459,-0.9100000262260437,82
11:13:29:567,-0.1591939926147461,-0.3427591323852539,-0.05693042278289795,-9.54496955871582,-2.6799612045288086,-1.5936198234558105,3.990000009536743,2.5899999141693115,8.050000190734863,82
11:13:29:609,0.039185523986816406,-0.07321023941040039,0.06739687919616699,-9.336793899536133,-2.4287149906158447,-1.4524433612823486,5.110000133514404,2.450000047683716,16.940000534057617,82
11:13:29:648,0.25914573669433594,-0.21553754806518555,0.14388775825500488,-9.052047729492188,-2.6249265670776367,-1.3399806022644043,5.53000020980835,0.9800000190734863,18.1299991607666,82
11:13:29:687,0.3049430847167969,0.15682268142700195,-0.018887996673583984,-8.930014610290527,-2.2133607864379883,-1.5074783563613892,-4.690000057220459,-3.009999990463257,17.989999771118164,82
11:13:29:729,0.03721427917480469,-0.07553911209106445,-0.19696497917175293,-9.18843936920166,-2.4646072387695312,-1.7347965240478516,-11.550000190734863,-14.279999732971191,10.850000381469727,82
11:13:29:768,0.2613964080810547,-0.03363180160522461,-0.038887858390808105,-8.898907661437988,-2.431107759475708,-1.5864413976669312,-8.539999961853027,-5.53000020980835,17.290000915527344,82
11:13:29:809,-0.1833057403564453,-0.2929873466491699,-0.36610543727874756,-9.389435768127441,-2.7637100219726562,-2.00518536567688,-7.909999847412109,-5.110000133514404,23.450000762939453,82
11:13:29:849,-0.24427223205566406,-0.2133331298828125,-0.12251532077789307,-9.511469841003418,-2.737389087677002,-1.7922240495681763,-2.7300000190734863,-4.760000228881836,30.520000457763672,82
11:13:29:889,0.08023548126220703,-0.25297975540161133,-0.036756038665771484,-9.166903495788574,-2.840280532836914,-1.7156537771224976,-4.760000228881836,-1.6100000143051147,27.3700008392334,82
11:13:29:928,0.12161540985107422,-0.25406885147094727,0.03567981719970703,-9.09511947631836,-2.9048867225646973,-1.6342979669570923,-1.3300000429153442,5.460000038146973,20.020000457763672,82
11:13:29:969,-0.2243022918701172,-0.13051319122314453,-0.13033950328826904,-9.497113227844238,-2.8139593601226807,-1.832902193069458,2.6600000858306885,3.569999933242798,14,82
11:13:30:8,-0.08372879028320312,-0.008697509765625,0.06992602348327637,-9.377471923828125,-2.6943180561065674,-1.6151552200317383,1.0499999523162842,2.5899999141693115,10.569999694824219,81
11:13:30:50,0.02298736572265625,-0.14478492736816406,-0.012972593307495117,-9.265008926391602,-2.8666017055511475,-1.7012970447540283,2.7300000190734863,6.579999923706055,9.170000076293945,81
11:13:30:89,0.0643320083618164,-0.012457847595214844,0.09107780456542969,-9.207581520080566,-2.737389087677002,-1.574477195739746,9.520000457763672,7.420000076293945,5.809999942779541,81
11:13:30:130,-0.057646751403808594,0.21400213241577148,0.17814624309539795,-9.343972206115723,-2.4574286937713623,-1.442872166633606,7.840000152587891,6.300000190734863,0.3499999940395355,81
11:13:30:168,-0.09780311584472656,0.19800138473510742,0.09466063976287842,-9.408578872680664,-2.423929214477539,-1.5026925802230835,1.2599999904632568,6.860000133514404,-2.380000114440918,81
11:13:30:210,0.0002422332763671875,0.0952305793762207,0.13124191761016846,-9.31047248840332,-2.502892255783081,-1.4333008527755737,-0.14000000059604645,4.269999980926514,-3.7799999713897705,81
11:13:30:246,-0.013205528259277344,0.19678258895874023,0.06670844554901123,-9.327221870422363,-2.352144718170166,-1.4811571836471558,0.21000000834465027,6.090000152587891,-4.409999847412109,81
11:13:30:290,0.03537750244140625,0.1191411018371582,0.11653733253479004,-9.269794464111328,-2.400001049041748,-1.4021940231323242,-0.49000000953674316,4.199999809265137,-5.880000114440918,81
11:13:30:329,-0.0425262451171875,0.13359785079956055,0.0913156270980835,-9.358329772949219,-2.352144718170166,-1.4045867919921875,-1.3300000429153442,5.179999828338623,-6.230000019073486,81
11:13:30:370,-0.022535324096679688,0.15856313705444336,0.07113814353942871,-9.343972206115723,-2.287538528442383,-1.4069796800613403,-0.5600000023841858,3.0799999237060547,-4.340000152587891,81
11:13:30:408,0.0221710205078125,0.16513586044311523,0.07222449779510498,-9.293723106384277,-2.2396819591522217,-1.3878371715545654,-1.9600000381469727,2.5199999809265137,-2.0299999713897705,81
11:13:30:450,0.09430694580078125,0.13976573944091797,0.11137878894805908,-9.198010444641113,-2.2301106452941895,-1.3208380937576294,-6.019999980926514,-0.42000001668930054,-1.8200000524520874,81
11:13:30:489,-0.05472373962402344,0.09458422660827637,-0.06020915508270264,-9.360722541809082,-2.251646041870117,-1.5074783563613892,-8.890000343322754,-0.21000000834465027,-0.14000000059604645,81
11:13:30:530,0.06150531768798828,0.014410972595214844,-0.004139304161071777,-9.229117393493652,-2.328216552734375,-1.4524433612823486,-8.539999961853027,0.21000000834465027,3.7799999713897705,81
11:13:30:569,-0.04076576232910156,-0.03632760047912598,-0.10668134689331055,-9.34157943725586,-2.3880369663238525,-1.581655740737915,-9.730000495910645,-1.190000057220459,3.569999933242798,81
11:13:30:610,0.10330009460449219,-0.02140498161315918,0.042910099029541016,-9.1716890335083,-2.3784656524658203,-1.4213367700576782,-7.840000152587891,-1.8200000524520874,5.389999866485596,81
11:13:30:649,0.04435539245605469,-0.09178018569946289,-0.07287025451660156,-9.219545364379883,-2.4717857837677,-1.5553346872329712,-8.960000038146973,-0.5600000023841858,6.650000095367432,81
11:13:30:690,0.12545394897460938,-0.13850879669189453,0.0623021125793457,-9.107083320617676,-2.5531415939331055,-1.4045867919921875,-6.789999961853027,-1.6100000143051147,8.680000305175781,81
11:13:30:729,-0.035549163818359375,-0.12994980812072754,-0.04395699501037598,-9.276973724365234,-2.5770699977874756,-1.521835207939148,-6.510000228881836,-0.14000000059604645,9.100000381469727,81
