time,ax,ay,az,ax_g,ay_g,az_g,rot_x,rot_y,rot_,heart
17:11:4:716,,,,-1.978864312171936,-0.02871387079358101,9.365508079528809,0,0,0,92
17:11:4:718,-1.2664731740951538,-0.018376877531409264,5.993925094604492,-1.978864312171936,-0.02871387079358101,9.365508079528809,65.44999694824219,-31.360000610351562,140.27999877929688,92
17:11:4:724,-0.7547537684440613,-0.26929783821105957,4.787483215332031,-1.65583336353302,-0.34695929288864136,9.355937004089355,-12.670000076293945,-1.5399999618530273,5.039999961853027,92
17:11:4:764,-0.766514778137207,-0.11781110614538193,3.9410133361816406,-1.8592231273651123,-0.22492533922195435,9.494720458984375,3.5,0.9100000262260437,2.240000009536743,92
17:11:4:805,-0.6227830648422241,-0.00045023858547210693,3.173867702484131,-1.8711872100830078,-0.10767702758312225,9.521041870117188,-0.8400000333786011,1.2599999904632568,-0.9800000190734863,92
17:11:4:844,-0.5633113384246826,-0.20135729014873505,2.452951431274414,-1.9525433778762817,-0.35892340540885925,9.413363456726074,-7.909999847412109,-0.49000000953674316,0.5600000023841858,92
17:11:4:888,-0.42002081871032715,-0.15917155146598816,1.9834189414978027,-1.9142580032348633,-0.3565305471420288,9.439685821533203,-7.630000114440918,0.42000001668930054,-5.599999904632568,92
17:11:4:929,-0.3111313581466675,-0.10436618328094482,1.5254788398742676,-1.8831514120101929,-0.3278167247772217,9.363115310668945,-5.320000171661377,0.42000001668930054,-5.320000171661377,92
17:11:4:971,-0.37907469272613525,-0.07200737297534943,1.3160953521728516,-2.045863389968872,-0.31345975399017334,9.482755661010742,-5.670000076293945,-0.42000001668930054,-12.949999809265137,92
17:11:5:13,-0.06014895439147949,-0.15331882238388062,0.6508817672729492,-1.741974949836731,-0.4331009089946747,8.980262756347656,5.460000038146973,5.389999866485596,-0.49000000953674316,92
17:11:5:50,-0.6147395372390747,-0.12265506386756897,1.2251529693603516,-2.4502503871917725,-0.4331009089946747,9.860822677612305,22.75,6.929999828338623,9.100000381469727,92
17:11:5:90,0.20882689952850342,0.1315869390964508,0.8097524642944336,-1.574477195739746,-0.1459621787071228,9.647860527038574,17.219999313354492,4.480000019073486,17.71000099182129,92
17:11:5:130,0.7049680352210999,0.6431760787963867,0.32620716094970703,-0.9020940661430359,0.5264209508895874,9.245866775512695,37.72999954223633,1.9600000381469727,25.479999542236328,92
17:11:5:170,-0.5539524555206299,0.587282657623291,-0.06445884704589844,-2.2995026111602783,0.6173481941223145,8.839086532592773,50.81999969482422,5.389999866485596,22.75,92
17:11:5:210,-0.11390948295593262,1.0115611553192139,-0.049652099609375,-1.887937068939209,1.294516921043396,8.841480255126953,60.76000213623047,4.269999980926514,12.25,92
17:11:5:250,0.15964031219482422,1.2093288898468018,0.4560708999633789,-1.574477195739746,1.794616937637329,9.461220741271973,30.520000457763672,0.49000000953674316,4.690000057220459,92
17:11:5:291,-0.7298755645751953,0.6707531213760376,0.25191593170166016,-2.6464619636535645,1.423729419708252,9.32004451751709,0.2800000011920929,9.239999771118164,3.7799999713897705,92
17:11:5:329,-0.0019658803939819336,0.5806304812431335,0.25513172149658203,-1.919043779373169,1.4787644147872925,9.387042999267578,-8.609999656677246,1.75,1.6100000143051147,92
17:11:5:375,0.1821960210800171,0.37070566415786743,0.09116458892822266,-1.6893328428268433,1.361515998840332,9.245866775512695,6.369999885559082,4.96999979019165,16.239999771118164,92
17:11:5:410,-0.7022595405578613,0.3291069269180298,-0.05532360076904297,-2.7493534088134766,1.4021940231323242,9.08554744720459,-7.559999942779541,-0.5600000023841858,16.170000076293945,92
17:11:5:465,-0.2842400074005127,0.22308611869812012,-0.34479713439941406,-2.4023938179016113,1.3519448041915894,8.709875106811523,25.899999618530273,-10.850000381469727,-15.890000343322754,92
17:11:5:498,-0.05128026008605957,0.4158369302749634,-0.1552410125732422,-2.1822540760040283,1.648654818534851,8.860621452331543,27.09000015258789,2.1700000762939453,-43.81999969482422,92
17:11:5:537,0.46051132678985596,0.9318323135375977,0.4290285110473633,-1.5553346872329712,2.3976082801818848,9.55214786529541,-22.260000228881836,3.0799999237060547,-42.70000076293945,92
17:11:5:574,-0.08527016639709473,0.042933106422424316,0.25133800506591797,-2.122433662414551,1.5194424390792847,9.437292098999023,-102.05999755859375,6.159999847412109,-26.25,92
17:11:5:615,0.27826452255249023,-0.9151256084442139,0.29869747161865234,-1.6893328428268433,0.3326023519039154,9.559326171875,-91.27999877929688,-1.9600000381469727,-20.020000457763672,92
17:11:5:654,-0.010927796363830566,-1.7045435905456543,0.16430187225341797,-1.9812570810317993,-0.882951557636261,9.4660062789917,-92.61000061035156,-16.170000076293945,-15.399999618530273,92
17:11:5:695,0.5502210855484009,-1.7101154327392578,0.5104646682739258,-1.2825528383255005,-1.3160523176193237,9.93978500366211,-47.31999969482422,-10.149999618530273,-16.520000457763672,92
17:11:5:734,-0.07284426689147949,-0.6234460473060608,0.2475748062133789,-1.9238293170928955,-0.3852444589138031,9.738788604736328,2.240000009536743,3.1500000953674316,-2.1700000762939453,92
17:11:5:776,-0.19993054866790771,-0.38772985339164734,0.14828872680664062,-2.100898265838623,-0.24646073579788208,9.67657470703125,-11.550000190734863,-0.9100000262260437,4.409999847412109,92
17:11:5:814,-0.1254878044128418,-0.7830056548118591,-0.05939483642578125,-2.0578274726867676,-0.8374879360198975,9.454042434692383,-7.699999809265137,-1.5399999618530273,5.25,92
17:11:5:857,-0.05636239051818848,-0.38520798087120056,-0.00731658935546875,-2.0027925968170166,-0.5359922647476196,9.504291534423828,-2.240000009536743,-0.5600000023841858,6.579999923706055,92
17:11:5:894,0.014252066612243652,-0.5474486351013184,-0.15707969665527344,-1.9286150932312012,-0.8350951075553894,9.315258979797363,-8.399999618530273,-2.6600000858306885,5.670000076293945,92
17:11:5:935,0.038201332092285156,-0.3058750629425049,-0.1869211196899414,-1.8951154947280884,-0.6699903011322021,9.238687515258789,-4.690000057220459,-1.4700000286102295,6.300000190734863,92
17:11:5:974,0.011418461799621582,-0.3614698350429535,-0.04042339324951172,-1.919043779373169,-0.8159525394439697,9.375079154968262,-7.769999980926514,-2.6600000858306885,5.670000076293945,92
17:11:6:16,0.02827739715576172,-0.23749089241027832,-0.047652244567871094,-1.8951154947280884,-0.7513462901115417,9.355937004089355,-8.329999923706055,-2.870000123977661,6.019999980926514,92
17:11:6:55,0.08196377754211426,-0.20722109079360962,-0.06875038146972656,-1.8209381103515625,-0.7728817462921143,9.31765079498291,-7.210000038146973,-1.6100000143051147,4.409999847412109,92
17:11:6:96,0.004314780235290527,-0.2346901297569275,0.01965618133544922,-1.8975083827972412,-0.8590233325958252,9.410971641540527,-8.260000228881836,-1.4700000286102295,4.130000114440918,92
17:11:6:135,-0.034833312034606934,-0.00015485286712646484,0.05018138885498047,-1.9453648328781128,-0.6245267391204834,9.454042434692383,-11.270000457763672,-2.870000123977661,5.599999904632568,92
17:11:6:175,-0.12166523933410645,0.017104506492614746,0.2219991683959961,-2.062613010406494,-0.6029912829399109,9.681360244750977,-19.600000381469727,-8.1899995803833,9.029999732971191,92
17:11:6:215,-0.20261645317077637,0.14768162369728088,0.23311328887939453,-2.194218397140503,-0.43549373745918274,9.750752449035645,-48.93000030517578,-17.56999969482422,16.940000534057617,92
17:11:6:256,-0.27503442764282227,-0.29533445835113525,0.054406166076660156,-2.335394859313965,-0.9523434042930603,9.585646629333496,-110.52999877929688,-31.290000915527344,22.329999923706055,92
17:11:6:294,0.2757652997970581,-1.0823695659637451,-0.5250091552734375,-1.7156537771224976,-2.0099709033966064,8.874979019165039,-160.5800018310547,-39.060001373291016,23.940000534057617,92
17:11:6:336,0.314410924911499,-2.0642213821411133,-0.6688604354858398,-1.5984054803848267,-3.507878065109253,8.563912391662598,-146.72000122070312,-36.2599983215332,17.639999389648438,92
17:11:6:375,0.2859853506088257,-2.612334728240967,-0.8681697845458984,-1.5553346872329712,-4.709074974060059,8.147561073303223,-133.35000610351562,-38.779998779296875,11.0600004196167,92
17:11:6:417,0.9064356684684753,-2.7445437908172607,-1.0161309242248535,-0.7082754969596863,-5.5274200439453125,7.7455668449401855,-105.13999938964844,-37.029998779296875,11.619999885559082,92
17:11:6:455,0.8514896035194397,-2.2817769050598145,-1.0215587615966797,-0.5503491759300232,-5.635097503662109,7.484748840332031,-94.08000183105469,-36.61000061035156,7.699999809265137,92
17:11:6:496,0.9530163407325745,-2.118302822113037,-0.9703874588012695,-0.2105683833360672,-6.001199245452881,7.293323516845703,-101.98999786376953,-34.22999954223633,4.199999809265137,92
17:11:6:587,0.8370691537857056,-2.0353803634643555,-1.4884138107299805,-0.11724831163883209,-6.427121639251709,6.403193473815918,-130.27000427246094,-40.040000915527344,5.460000038146973,92
17:11:6:594,0.845767080783844,-2.0570974349975586,-1.7822365760803223,0.10289137810468674,-6.963113307952881,5.663811206817627,-150.00999450683594,-44.17000198364258,6.230000019073486,92
17:11:6:608,0.8680394887924194,-2.3654394149780273,-2.555201530456543,0.34217363595962524,-7.862814903259277,4.252045631408691,-176.61000061035156,-47.95000076293945,1.6100000143051147,92
17:11:6:648,1.0485693216323853,-2.5872278213500977,-2.765836238861084,0.784845769405365,-8.731410026550293,3.34995174407959,-195.86000061035156,-40.599998474121094,-2.940000057220459,92
17:11:6:690,0.8752263784408569,-2.2363219261169434,-3.355480909347534,0.8303093910217285,-8.939584732055664,1.9214365482330322,-193.8300018310547,-28.420000076293945,-7.559999942779541,92
17:11:6:728,0.7729229927062988,-2.2944226264953613,-3.5151727199554443,0.9212367534637451,-9.571290969848633,0.882951557636261,-192.85000610351562,-11.0600004196167,-4.130000114440918,92
17:11:6:770,0.33502811193466187,-2.390671730041504,-3.382587194442749,0.5670989155769348,-10.26520824432373,0.1698903888463974,-139.72000122070312,5.809999942779541,1.190000057220459,92
17:11:6:809,0.35416412353515625,-1.8780813217163086,-3.106149673461914,0.6747759580612183,-10.222138404846191,-0.33020952343940735,-79.7300033569336,17.149999618530273,3.990000009536743,92
17:11:6:848,0.3618159294128418,-1.2038402557373047,-2.3145506381988525,0.7728817462921143,-9.848857879638672,-0.11724831163883209,-39.34000015258789,29.96000099182129,10.569999694824219,92
17:11:6:894,0.21096810698509216,-0.4385662078857422,-1.9224680662155151,0.6747759580612183,-9.193224906921387,-0.20578275620937347,-39.47999954223633,31.079999923706055,14.350000381469727,92
17:11:6:935,-0.08199331164360046,-1.053384780883789,-2.1371371746063232,0.3613162040710449,-10.071390151977539,-0.9547362923622131,-39.970001220703125,30.170000076293945,15.680000305175781,92
17:11:6:976,-0.0866515040397644,-0.7355098724365234,-2.6438674926757812,0.3349951505661011,-9.937392234802246,-2.122433662414551,-17.43000030517578,27.510000228881836,16.450000762939453,92
17:11:7:15,-0.2971178889274597,0.8798274993896484,0.5208393931388855,0.05024927482008934,-8.102097511291504,1.1724830865859985,-16.8700008392334,17.989999771118164,21.6299991607666,91
17:11:7:57,-0.16878102719783783,-1.5051908493041992,-1.020936369895935,0.13639087975025177,-10.86341381072998,-0.6245267391204834,-64.75,4.130000114440918,16.59000015258789,91
17:11:7:95,0.4507381319999695,-0.11876869201660156,-2.5797805786132812,0.8685945868492126,-9.506684303283691,-2.8283162117004395,-59.56999969482422,25.1299991607666,20.790000915527344,91
17:11:7:137,0.2935914397239685,-0.44341087341308594,-2.6304450035095215,0.784845769405365,-9.942178726196289,-3.5365920066833496,-13.369999885559082,51.310001373291016,31.43000030517578,91
17:11:7:173,0.0051622092723846436,0.7612848281860352,-1.3175956010818481,0.4977070987224579,-8.547162055969238,-2.5531415939331055,-13.930000305175781,66.63999938964844,28.630001068115234,91
17:11:7:217,-0.09541165828704834,-0.6199274063110352,-2.191145896911621,0.3732803165912628,-10.083355903625488,-3.974478244781494,-46.130001068115234,74.83000183105469,26.25,91
17:11:7:256,-0.8420325517654419,0.3501615524291992,-0.7823877334594727,-0.5838487148284912,-9.025726318359375,-2.761317014694214,-34.369998931884766,84.27999877929688,27.510000228881836,91
17:11:7:296,-1.4221010208129883,-1.0579376220703125,0.6968419551849365,-1.5194424390792847,-10.698309898376465,-1.1078768968582153,-23.59000015258789,70.48999786376953,26.110000610351562,91
17:11:7:336,-0.8294851183891296,-0.6817245483398438,0.8848116397857666,-1.1341978311538696,-10.492527961730957,-0.6987042427062988,18.829999923706055,25.200000762939453,5.880000114440918,91
17:11:7:377,-0.03954002261161804,0.6740026473999023,-0.7125301361083984,-0.35413774847984314,-8.968299865722656,-2.4741785526275635,17.290000915527344,19.809999465942383,7.139999866485596,91
17:11:7:416,-0.0029181241989135742,1.1077375411987305,-0.556624174118042,-0.31824538111686707,-8.257630348205566,-2.4574286937713623,5.320000171661377,18.760000228881836,12.319999694824219,91
17:11:7:458,-0.20907443761825562,-0.4518775939941406,-0.6769247055053711,-0.5766702890396118,-9.930214881896973,-2.746960401535034,-10.079999923706055,16.030000686645508,12.390000343322754,91
17:11:7:495,-0.20937317609786987,-0.04756355285644531,0.16865015029907227,-0.6293123364448547,-9.53779125213623,-1.8592231273651123,-1.6100000143051147,6.510000228881836,7.630000114440918,91
17:11:7:537,-0.462294340133667,0.3964862823486328,0.0009219646453857422,-0.9978070855140686,-8.994620323181152,-2.0267207622528076,-18.200000762939453,-4.619999885559082,9.520000457763672,91
17:11:7:576,-0.08652526140213013,-0.11160469055175781,-0.6079967021942139,-0.6436693072319031,-9.530611991882324,-2.7876384258270264,-2.6600000858306885,-7.909999847412109,13.440000534057617,91
17:11:7:617,0.4112585783004761,-0.02994251251220703,-0.31794261932373047,-0.04307081177830696,-9.456435203552246,-2.5770699977874756,-3.430000066757202,1.8200000524520874,13.369999885559082,91
17:11:7:657,-0.06341603398323059,-1.1763372421264648,-0.87265944480896,-0.5335994362831116,-10.8969144821167,-3.34995174407959,0.9800000190734863,3.2200000286102295,6.860000133514404,91
17:11:7:696,0.579058051109314,0.23237037658691406,-0.5890147686004639,0.25363919138908386,-9.430113792419434,-3.2135608196258545,44.65999984741211,3.7799999713897705,2.7300000190734863,91
17:11:7:737,0.2450210303068161,1.1564254760742188,-0.49801135063171387,-0.019142581149935722,-8.216952323913574,-3.2470602989196777,32.83000183105469,21.350000381469727,10.989999771118164,91
17:11:7:776,-0.12175002694129944,0.29343509674072266,-0.21081209182739258,-0.4163511395454407,-9.006584167480469,-3.012563943862915,61.529998779296875,38.220001220703125,23.940000534057617,91
17:11:7:817,-0.8535318970680237,0.4989147186279297,2.1897165775299072,-1.361515998840332,-8.676375389099121,-0.064606212079525,53.34000015258789,39.83000183105469,31.920000076293945,91
17:11:7:858,-1.7490671873092651,-0.10240364074707031,2.2188522815704346,-2.6943180561065674,-9.30329418182373,0.519242525100708,14.279999732971191,29.610000610351562,25.690000534057617,91
17:11:7:896,-1.406911015510559,-0.910797119140625,0.7892389297485352,-2.7038896083831787,-10.339386940002441,-0.7130610942840576,0.5600000023841858,15.819999694824219,14.489999771118164,91
17:11:7:937,-0.9226174354553223,-0.9908905029296875,0.5356781482696533,-2.4502503871917725,-10.667202949523926,-0.8327022790908813,16.239999771118164,16.030000686645508,8.399999618530273,91
17:11:7:976,-0.3035573959350586,-0.6721134185791016,1.282301664352417,-1.9070796966552734,-10.516454696655273,0.23449662327766418,17.920000076293945,8.75,7.490000247955322,91
17:11:8:18,0.06726396083831787,-0.20652389526367188,1.2306668758392334,-1.5194424390792847,-10.102496147155762,0.4905286431312561,13.649999618530273,2.1700000762939453,4.760000228881836,92
17:11:8:57,0.3045790195465088,0.33057308197021484,0.7088803052902222,-1.2059825658798218,-9.482755661010742,0.1459621787071228,21.139999389648438,1.8200000524520874,1.0499999523162842,92
17:11:8:97,0.5384589433670044,0.34102821350097656,0.4541630148887634,-0.8374879360198975,-9.387042999267578,0.004785645287483931,12.880000114440918,5.110000133514404,-2.7300000190734863,92
17:11:8:137,0.0766294002532959,0.04885387420654297,0.277188777923584,-1.2801601886749268,-9.667003631591797,-0.10289137810468674,18.899999618530273,8.960000038146973,-3.7799999713897705,92
17:11:8:178,-0.14735054969787598,0.42002010345458984,0.5299465656280518,-1.5409778356552124,-9.190832138061523,0.28235307335853577,27.440000534057617,7.769999980926514,-3.640000104904175,92
17:11:8:217,-0.42224740982055664,0.47767066955566406,0.6708965301513672,-1.9214365482330322,-9.013763427734375,0.5910272002220154,16.729999542236328,3.1500000953674316,-2.5199999809265137,92
17:11:8:257,-0.2669703960418701,0.11796951293945312,0.39314788579940796,-1.832902193069458,-9.343972206115723,0.41156551241874695,4.130000114440918,-3.5,-0.6299999952316284,92
17:11:8:298,0.10419058799743652,-0.09322166442871094,0.26474758982658386,-1.435693621635437,-9.578469276428223,0.3493521213531494,-5.740000247955322,-12.109999656677246,-0.6299999952316284,92
17:11:8:337,0.2575500011444092,0.02687835693359375,0.38408130407333374,-1.2179466485977173,-9.45164966583252,0.5647061467170715,-6.650000095367432,-14,-3.430000066757202,92
17:11:8:378,0.3955514430999756,-0.030181884765625,0.4125491976737976,-0.9810572862625122,-9.516255378723145,0.696311354637146,-12.039999961853027,-15.680000305175781,-1.399999976158142,92
17:11:8:418,-0.0759817361831665,-0.0643453598022461,0.16349893808364868,-1.4715858697891235,-9.566505432128906,0.48813584446907043,-2.7300000190734863,-9.59000015258789,1.2599999904632568,92
17:11:8:458,-0.3249528408050537,0.08252143859863281,0.18439838290214539,-1.801795244216919,-9.399007797241211,0.5551348924636841,4.619999885559082,-11.480000495910645,3.640000104904175,92
17:11:8:497,-0.04747974872589111,0.2746715545654297,0.41934335231781006,-1.5361920595169067,-9.138189315795898,0.8949156999588013,3.3600001335144043,-18.270000457763672,3.7799999713897705,92
17:11:8:538,0.04241490364074707,0.27333641052246094,0.38907384872436523,-1.435693621635437,-9.07119083404541,0.9619146585464478,-9.65999984741211,-24.219999313354492,1.6100000143051147,92
17:11:8:577,0.19472968578338623,0.32395362854003906,0.029863178730010986,-1.234696388244629,-8.939584732055664,0.6101697683334351,-14.699999809265137,-27.229999542236328,3.5,92
17:11:8:617,0.35486650466918945,0.3682746887207031,-0.037365734577178955,-0.9858429431915283,-8.803194999694824,0.5335994362831116,-14.699999809265137,-25.059999465942383,14.630000114440918,92
17:11:8:658,0.1709519624710083,0.07256603240966797,0.2821314334869385,-1.1270195245742798,-9.080761909484863,0.9236294627189636,-29.610000610351562,-22.049999237060547,24.71000099182129,92
17:11:8:698,-0.1369771957397461,-0.799534797668457,-0.6931387186050415,-1.4691929817199707,-10.152746200561523,-0.22492533922195435,-10.289999961853027,-19.739999771118164,31.290000915527344,92
17:11:8:737,-0.41586315631866455,-0.27591896057128906,0.027423471212387085,-1.852044701576233,-9.698110580444336,0.5024927258491516,15.399999618530273,-16.799999237060547,31.850000381469727,92
17:11:8:777,-0.7059710025787354,-0.8045845031738281,0.38181930780410767,-2.3186452388763428,-10.427922248840332,0.9523434042930603,-4.550000190734863,-19.25,28.559999465942383,92
17:11:8:818,-0.5016062259674072,-0.9154911041259766,0.043202102184295654,-2.2396819591522217,-10.767702102661133,0.6245267391204834,-13.649999618530273,-26.040000915527344,22.1200008392334,92
17:11:8:859,-0.15626001358032227,-0.5199108123779297,-0.21429193019866943,-1.9334007501602173,-10.50209903717041,0.31345975399017334,-8.819999694824219,-29.049999237060547,10.569999694824219,92
17:11:8:897,0.09321761131286621,0.25023365020751953,-0.09294894337654114,-1.660618782043457,-9.66939640045166,0.41156551241874695,-7.630000114440918,-28.559999465942383,0.6299999952316284,92
17:11:8:938,0.3349130153656006,0.03556060791015625,-0.0035315752029418945,-1.3351951837539673,-9.875179290771484,0.5000999569892883,-12.180000305175781,-27.93000030517578,-2.6600000858306885,92
17:11:8:977,0.10521864891052246,0.21030330657958984,-0.4411903917789459,-1.5385849475860596,-9.647860527038574,-0.04785645008087158,-5.53000020980835,-26.31999969482422,-5.53000020980835,92
17:11:9:18,-0.4460744857788086,-0.5764036178588867,-0.5769205093383789,-2.2013967037200928,-10.578668594360352,-0.3278167247772217,-14.350000381469727,-29.329999923706055,-16.729999542236328,93
17:11:9:59,-0.05823540687561035,0.18206787109375,-0.8673591017723083,-1.8281164169311523,-9.774680137634277,-0.8350951075553894,-24.71000099182129,-27.93000030517578,-29.610000610351562,93
17:11:9:99,0.7267718315124512,0.7084455490112305,0.2594132423400879,-0.861416220664978,-9.07119083404541,0.3565305471420288,8.329999923706055,-21.280000686645508,-29.190000534057617,93
17:11:9:139,0.4321054220199585,0.6662979125976562,1.4843409061431885,-1.0480562448501587,-8.94676399230957,1.9525433778762817,28.979999542236328,-27.229999542236328,-17.360000610351562,93
17:11:9:177,0.8395628333091736,0.9158906936645508,0.7050795555114746,-0.430708110332489,-8.468198776245117,1.3495519161224365,68.04000091552734,-32.47999954223633,-10.710000038146973,93
17:11:9:218,0.4668247103691101,1.295504093170166,0.45303666591644287,-0.6867401003837585,-7.764709949493408,1.210768222808838,-22.68000030517578,-40.95000076293945,-4.130000114440918,93
17:11:9:260,0.32560330629348755,-1.1726493835449219,-1.0311505794525146,-0.7465606331825256,-10.526025772094727,-0.5312066078186035,-34.790000915527344,-43.189998626708984,5.320000171661377,93
17:11:9:298,0.10351347923278809,0.04197978973388672,-0.8096064329147339,-0.9427721500396729,-9.300901412963867,-0.5120640397071838,-24.850000381469727,-31.290000915527344,7.840000152587891,93
17:11:9:339,0.21680891513824463,-0.4066963195800781,-0.8199684023857117,-0.7752745151519775,-9.851251602172852,-0.7274181246757507,-25.829999923706055,-16.729999542236328,10.430000305175781,93
17:11:9:378,0.5926696062088013,-0.2258148193359375,-0.17358164489269257,-0.2512463629245758,-9.726823806762695,-0.12442677468061447,-9.449999809265137,-2.870000123977661,7.210000038146973,93
17:11:9:418,0.7938168048858643,-0.07153892517089844,-0.010610021650791168,0.14835500717163086,-9.590433120727539,0.035892341285943985,-12.390000343322754,6.440000057220459,7.420000076293945,93
17:11:9:460,0.6101680994033813,-0.34819889068603516,-0.054430216550827026,0.11724831163883209,-9.954142570495605,-0.02153540588915348,-12.039999961853027,7.980000019073486,4.900000095367432,93
17:11:9:498,0.3981643617153168,-0.40872764587402344,0.0425974503159523,0.004785645287483931,-10.116853713989258,0.08614162355661392,-10.710000038146973,10.359999656677246,0.9800000190734863,93
17:11:9:539,0.016078710556030273,-0.5471220016479492,-0.38897305727005005,-0.3732803165912628,-10.39202880859375,-0.44267216324806213,-3.5,21.770000457763672,-4.550000190734863,93
17:11:9:578,-0.2245050072669983,-0.14098739624023438,-0.34372085332870483,-0.6699903011322021,-10.021141052246094,-0.4833501875400543,10.289999961853027,34.369998931884766,-8.050000190734863,93
17:11:9:620,-0.5011993646621704,-0.20467472076416016,0.002590760588645935,-1.0719845294952393,-10.13599681854248,-0.13639087975025177,9.449999809265137,38.709999084472656,-8.470000267028809,93
17:11:9:658,-0.5253863334655762,-0.10056877136230469,0.16669879853725433,-1.227518081665039,-10.05703353881836,0.06939186155796051,9.3100004196167,38.36000061035156,-4.340000152587891,93
17:11:9:700,-0.8395315408706665,0.2009410858154297,0.5123821496963501,-1.7515461444854736,-9.705288887023926,0.5431707501411438,18.270000457763672,34.790000915527344,-5.039999961853027,93
17:11:9:738,-0.692682147026062,1.0068550109863281,0.8061571717262268,-1.777867317199707,-8.647661209106445,1.038485050201416,12.880000114440918,28.489999771118164,-6.510000228881836,93
17:11:9:780,-0.16172277927398682,0.63128662109375,0.956949770450592,-1.2873386144638062,-8.865407943725586,1.428515076637268,-5.670000076293945,19.18000030517578,-3.8499999046325684,93
17:11:9:819,0.31664401292800903,0.18726253509521484,0.7215319275856018,-0.729810893535614,-9.262616157531738,1.373480200767517,-3.009999990463257,13.720000267028809,2.240000009536743,93
17:11:9:861,0.2801148295402527,0.048354148864746094,0.1943739652633667,-0.696311354637146,-9.389435768127441,0.8949156999588013,0.14000000059604645,8.539999961853027,8.050000190734863,93
17:11:9:898,0.27960532903671265,-0.1527423858642578,0.07701456546783447,-0.6269195079803467,-9.628718376159668,0.7968099117279053,2.240000009536743,1.4700000286102295,10.359999656677246,93
17:11:9:940,0.19497042894363403,-0.2408771514892578,0.07309722900390625,-0.662811815738678,-9.77707290649414,0.8111668825149536,-4.199999809265137,-4.059999942779541,8.399999618530273,93
17:11:9:978,0.21914684772491455,-0.3707275390625,-0.0468064546585083,-0.5838487148284912,-9.999605178833008,0.6795615553855896,-9.65999984741211,-7.420000076293945,4.480000019073486,93
17:11:10:20,0.26337334513664246,-0.21618366241455078,-0.18675720691680908,-0.4737788736820221,-9.899106979370117,0.49292147159576416,-10.289999961853027,-7,1.4700000286102295,92
17:11:10:59,0.15327095985412598,-0.05617713928222656,-0.31977471709251404,-0.5455635190010071,-9.753145217895508,0.2799602448940277,-6.440000057220459,-3.5,1.0499999523162842,92
17:11:10:99,-0.05349498987197876,0.0029144287109375,-0.26347678899765015,-0.7657032012939453,-9.69332504272461,0.27038896083831787,-0.3499999940395355,1.8200000524520874,1.75,92
17:11:10:139,-0.24187886714935303,0.25884342193603516,-0.13038259744644165,-1.0145567655563354,-9.372685432434082,0.37088751792907715,-0.6299999952316284,4.690000057220459,3.2200000286102295,92
17:11:10:180,-0.2815589904785156,0.21855926513671875,0.17900407314300537,-1.124626636505127,-9.358329772949219,0.7250252366065979,-7.139999866485596,4.690000057220459,5.460000038146973,92
17:11:10:219,-0.19653338193893433,0.19016170501708984,0.12023216485977173,-1.0887343883514404,-9.339186668395996,0.696311354637146,-11.0600004196167,3.0799999237060547,7.070000171661377,92
17:11:10:284,-0.08448487520217896,0.00664520263671875,0.09044307470321655,-0.9978070855140686,-9.521041870117188,0.6891329884529114,-10.289999961853027,1.1200000047683716,9.100000381469727,92
17:11:10:300,0.03961062431335449,-0.019568443298339844,0.10872524976730347,-0.8638089299201965,-9.55214786529541,0.7345964908599854,-10.640000343322754,-1.0499999523162842,11.619999885559082,92
17:11:10:342,0.1025160551071167,-0.17645263671875,0.06400918960571289,-0.7752745151519775,-9.753145217895508,0.705882728099823,-10.430000305175781,-3.2899999618530273,10.640000343322754,92
17:11:10:380,0.030327916145324707,-0.32493114471435547,-0.13256147503852844,-0.8398807048797607,-9.982856750488281,0.47617170214653015,-9.9399995803833,-5.53000020980835,8.1899995803833,92
17:11:10:420,0.12954652309417725,-0.24271583557128906,-0.2247331738471985,-0.7082754969596863,-9.961319923400879,0.3278167247772217,-10.850000381469727,-6.650000095367432,3.640000104904175,92
17:11:10:459,-0.09544557332992554,-0.33391475677490234,-0.37695515155792236,-0.9571290016174316,-10.13599681854248,0.0813559740781784,-10.359999656677246,-4.130000114440918,0.42000001668930054,92
17:11:10:500,-0.28501057624816895,0.09849166870117188,-0.18288013339042664,-1.2179466485977173,-9.678967475891113,0.22971096634864807,-4.130000114440918,-2.5899999141693115,-0.07000000029802322,92
17:11:10:538,-0.06146800518035889,0.46738719940185547,0.14466315507888794,-1.0097711086273193,-9.193224906921387,0.5934200286865234,-6.860000133514404,-1.8899999856948853,0.2800000011920929,92
17:11:10:580,0.01399606466293335,0.17291259765625,-0.08143806457519531,-0.9308080077171326,-9.44447135925293,0.34695929288864136,-14.630000114440918,1.190000057220459,4.199999809265137,92
17:11:10:619,-0.14577233791351318,-0.07989501953125,-0.287204384803772,-1.1270195245742798,-9.717252731323242,0.06939186155796051,-5.25,3.8499999046325684,7.909999847412109,92
17:11:10:661,-0.1644742488861084,0.10645294189453125,0.10331737995147705,-1.1868400573730469,-9.504291534423828,0.48574298620224,3.1500000953674316,2.309999942779541,9.170000076293945,92
17:11:10:698,-0.05500900745391846,-0.03352165222167969,0.13242459297180176,-1.0911270380020142,-9.652647018432617,0.5479563474655151,-8.470000267028809,-2.0999999046325684,8.1899995803833,92
17:11:10:740,0.11296188831329346,-0.23929882049560547,-0.0031729936599731445,-0.8949156999588013,-9.918249130249023,0.41156551241874695,-8.119999885559082,-5.740000247955322,7.28000020980835,92
17:11:10:779,0.23776739835739136,-0.09572696685791016,-0.09250852465629578,-0.7106683850288391,-9.798608779907227,0.2991028428077698,-5.389999866485596,-6.230000019073486,3.640000104904175,92
17:11:10:820,0.09832960367202759,-0.0938100814819336,-0.022321850061416626,-0.8255237936973572,-9.820144653320312,0.36370906233787537,-6.929999828338623,-7.139999866485596,0.699999988079071,92
17:11:10:860,0.0020933151245117188,-0.05973339080810547,-0.2150260955095291,-0.9212367534637451,-9.80100154876709,0.11724831163883209,-6.510000228881836,-5.599999904632568,-2.450000047683716,92
17:11:10:900,0.08398783206939697,0.07664012908935547,-0.3079332113265991,-0.818345308303833,-9.645467758178711,-0.0526420958340168,-6.369999885559082,-0.9800000190734863,-3.7799999713897705,92
17:11:10:939,0.004019737243652344,0.11491107940673828,-0.31334561109542847,-0.8973084688186646,-9.578469276428223,-0.13639087975025177,-5.039999961853027,3.7799999713897705,-3.2200000286102295,92
17:11:10:980,0.014701306819915771,0.20678424835205078,-0.2143055945634842,-0.882951557636261,-9.434900283813477,-0.09092726558446884,-3.0799999237060547,8.75,-3.2200000286102295,92
17:11:11:20,-0.0667235255241394,0.2400836944580078,0.12335129082202911,-0.9810572862625122,-9.34157943725586,0.27756744623184204,-4.269999980926514,10.289999961853027,-4.340000152587891,91
17:11:11:61,0.3084160089492798,-0.6157503128051758,-0.004688918590545654,-0.5288137793540955,-10.351350784301758,0.14835500717163086,-14.350000381469727,13.020000457763672,-8.050000190734863,91
17:11:11:99,0.376902312040329,-0.6533985137939453,-0.15689179301261902,-0.3661018908023834,-10.552348136901855,-0.04307081177830696,-1.9600000381469727,18.34000015258789,-8.819999694824219,91
17:11:11:141,0.3225787580013275,0.030501365661621094,-0.33416756987571716,-0.3397807776927948,-9.860822677612305,-0.3038884699344635,10.850000381469727,22.469999313354492,-8.609999656677246,91
17:11:11:179,0.14320746064186096,0.3249397277832031,0.008319109678268433,-0.4833501875400543,-9.485149383544922,0.0406779870390892,4.550000190734863,29.610000610351562,-5.53000020980835,91
17:11:11:219,-0.2740284204483032,0.08766841888427734,0.44310611486434937,-0.9690931439399719,-9.7005033493042,0.5862415432929993,-1.9600000381469727,34.650001525878906,3.640000104904175,91
17:11:11:261,-0.7820146083831787,-0.6247415542602539,0.055860623717308044,-1.672582983970642,-10.569098472595215,0.21296121180057526,5.53000020980835,35.06999969482422,5.320000171661377,91
17:11:11:300,-0.4399287700653076,0.4439373016357422,0.5711095333099365,-1.4404792785644531,-9.389435768127441,0.8709874749183655,53.54999923706055,34.439998626708984,5.949999809265137,91
17:11:11:341,-0.6141964197158813,2.0090689659118652,1.2015337944030762,-1.7682960033416748,-7.322037220001221,1.801795244216919,30.59000015258789,32.130001068115234,13.230000495910645,91
17:11:11:379,-1.647568941116333,0.3304452896118164,1.5757039785385132,-3.2135608196258545,-8.918049812316895,2.5698914527893066,-49.4900016784668,-24.850000381469727,6.090000152587891,91
17:11:11:422,1.6490448713302612,-0.3654346466064453,-1.7639645338058472,0.49531427025794983,-9.705288887023926,-1.210768222808838,24.010000228881836,-1.9600000381469727,16.239999771118164,91
17:11:11:460,0.6703023910522461,-0.022437095642089844,-0.7335243225097656,-0.3158525824546814,-9.367900848388672,-0.36370906233787537,-13.09000015258789,9.239999771118164,19.18000030517578,91
17:11:11:502,-0.5185143947601318,-0.7243108749389648,1.4461228847503662,-1.6342979669570923,-10.250852584838867,2.177468776702881,-9.380000114440918,14.980000495910645,17.079999923706055,91
17:11:11:540,-0.5296670198440552,-0.30379581451416016,1.1358413696289062,-1.777867317199707,-9.906286239624023,2.1511476039886475,-8.050000190734863,1.1200000047683716,8.819999694824219,91
17:11:11:582,-0.21890795230865479,-0.28897857666015625,-0.4600214958190918,-1.521835207939148,-9.963713645935059,0.44027936458587646,-1.4700000286102295,-9.65999984741211,3.1500000953674316,91
17:11:11:621,0.4010653495788574,0.10764122009277344,-0.37184569239616394,-0.8015955686569214,-9.540184020996094,0.43549373745918274,-8.75,-14.980000495910645,0.2800000011920929,91
17:11:11:661,0.25959599018096924,0.0880270004272461,-0.2955623269081116,-0.8781659603118896,-9.53779125213623,0.4378865361213684,-11.619999885559082,-12.460000038146973,0.5600000023841858,91
17:11:11:701,0.24787622690200806,0.034050941467285156,-0.3283342123031616,-0.82791668176651,-9.58325481414795,0.32303106784820557,-7.980000019073486,-6.929999828338623,3.2899999618530273,91
17:11:11:741,0.031760573387145996,-0.1718425750732422,-0.3430662453174591,-1.0360921621322632,-9.832108497619629,0.2225324809551239,-0.2800000011920929,3.0799999237060547,4.409999847412109,91
17:11:11:781,0.04072248935699463,-0.11258888244628906,0.03182828426361084,-1.0169496536254883,-9.80100154876709,0.605384111404419,6.369999885559082,9.239999771118164,3.7100000381469727,91
17:11:11:820,-0.16459059715270996,0.18175315856933594,0.32025837898254395,-1.2634103298187256,-9.461220741271973,0.973878800868988,6.230000019073486,8.470000267028809,2.380000114440918,91
17:11:11:863,-0.1469864845275879,0.01906108856201172,0.18920761346817017,-1.2825528383255005,-9.619147300720215,0.8901299238204956,0.7699999809265137,4.269999980926514,0.3499999940395355,91
17:11:11:900,-0.20947372913360596,-0.0019788742065429688,0.011625349521636963,-1.3974084854125977,-9.640682220458984,0.7154539823532104,-3.1500000953674316,1.8899999856948853,-0.9800000190734863,91
17:11:11:941,0.039160966873168945,0.38318347930908203,0.304095983505249,-1.1389836072921753,-9.159724235534668,1.0839486122131348,-3.3600001335144043,0.9100000262260437,0.8400000333786011,91
17:11:11:981,-0.07778382301330566,0.0002651214599609375,-0.001748204231262207,-1.275374412536621,-9.542576789855957,0.7776673436164856,-9.9399995803833,-0.07000000029802322,3.0799999237060547,91
17:11:12:22,-0.002885103225708008,-0.11081504821777344,-0.0588262677192688,-1.2011969089508057,-9.681360244750977,0.705882728099823,-4.480000019073486,2.5199999809265137,3.0799999237060547,91
17:11:12:61,0.00726318359375,-0.019739151000976562,-0.006861627101898193,-1.1892328262329102,-9.595218658447266,0.7561319470405579,-5.320000171661377,3.640000104904175,3.569999933242798,91
17:11:12:102,0.01729607582092285,-0.1899890899658203,-0.0035750269889831543,-1.1748759746551514,-9.812965393066406,0.7585247755050659,-4.96999979019165,1.190000057220459,2.940000057220459,91
17:11:12:141,0.17272025346755981,-0.008421897888183594,0.15028059482574463,-0.9762716889381409,-9.633503913879395,0.9499505758285522,-0.7699999809265137,0.42000001668930054,2.240000009536743,91
17:11:12:182,0.02523505687713623,0.08897590637207031,0.014940261840820312,-1.117448091506958,-9.513862609863281,0.818345308303833,-2.1700000762939453,-0.9800000190734863,2.6600000858306885,91
17:11:12:232,0.016359448432922363,-0.01496124267578125,-0.1086459755897522,-1.1222338676452637,-9.621540069580078,0.6675975918769836,-1.4700000286102295,0.49000000953674316,1.9600000381469727,91
17:11:12:261,0.007344841957092285,0.03971672058105469,-0.07351702451705933,-1.129412293434143,-9.556933403015137,0.6843472719192505,-5.53000020980835,0.7699999809265137,2.6600000858306885,91
17:11:12:302,0.21453005075454712,-0.008426666259765625,0.26852452754974365,-0.8685945868492126,-9.607183456420898,1.093519926071167,-3.3600001335144043,1.190000057220459,3.430000066757202,91
17:11:12:341,-0.05425846576690674,-0.0009975433349609375,-0.16611778736114502,-1.1509476900100708,-9.600004196166992,0.6173481941223145,-4.690000057220459,1.1200000047683716,3.2200000286102295,91
17:11:12:382,-0.10466313362121582,-0.14053916931152344,-0.027609944343566895,-1.227518081665039,-9.774680137634277,0.7489535212516785,-3.2200000286102295,2.240000009536743,1.6800000667572021,91
17:11:12:421,0.06941020488739014,0.25127696990966797,0.15402376651763916,-1.0360921621322632,-9.32004451751709,0.9690931439399719,-3.009999990463257,1.8200000524520874,3.0799999237060547,91
17:11:12:463,0.057442426681518555,-0.04208946228027344,0.07153409719467163,-1.0336993932724,-9.623932838439941,0.9044869542121887,-0.49000000953674316,0.8400000333786011,3.2899999618530273,91
17:11:12:501,-0.15887176990509033,0.11372566223144531,0.02659916877746582,-1.289731502532959,-9.439685821533203,0.8662018179893494,-5.110000133514404,0.8400000333786011,3.3600001335144043,91
17:11:12:542,-0.0639268159866333,-0.23061466217041016,-0.12994706630706787,-1.210768222808838,-9.841679573059082,0.6771688461303711,-6.369999885559082,0.21000000834465027,3.0799999237060547,91
17:11:12:581,0.03882861137390137,0.09116172790527344,0.06066852807998657,-1.098305583000183,-9.497113227844238,0.882951557636261,-3.9200000762939453,0.9100000262260437,3.430000066757202,91
17:11:12:622,-0.026364922523498535,-0.00746917724609375,-0.014635741710662842,-1.1700903177261353,-9.597611427307129,0.8039883971214294,-4.409999847412109,0.07000000029802322,3.8499999046325684,91
17:11:12:662,-0.04789149761199951,-0.1686878204345703,-0.04233676195144653,-1.2035897970199585,-9.80100154876709,0.7657032012939453,-4.760000228881836,-0.21000000834465027,3.1500000953674316,91
17:11:12:701,-0.08425533771514893,-0.02966594696044922,0.023558378219604492,-1.2610174417495728,-9.66939640045166,0.8374879360198975,-4.130000114440918,1.2599999904632568,2.5899999141693115,91
17:11:12:742,0.08190786838531494,0.14089393615722656,0.02076089382171631,-1.0743772983551025,-9.463613510131836,0.8398807048797607,-0.9800000190734863,1.0499999523162842,3.2899999618530273,91
17:11:12:782,0.0023556947708129883,-0.0136260986328125,0.08552199602127075,-1.1533405780792236,-9.621540069580078,0.9260223507881165,-3.2200000286102295,0.2800000011920929,3.009999990463257,91
17:11:12:823,-0.08999991416931152,-0.030042648315429688,-0.06175196170806885,-1.2681961059570312,-9.645467758178711,0.763310432434082,-3.640000104904175,1.190000057220459,2.5199999809265137,91
17:11:12:862,0.0007419586181640625,-0.010634422302246094,-0.02834475040435791,-1.1772687435150146,-9.628718376159668,0.7896314859390259,-2.5199999809265137,1.4700000286102295,2.6600000858306885,91
17:11:12:901,0.017821907997131348,0.06423377990722656,0.11515074968338013,-1.155733346939087,-9.53779125213623,0.9619146585464478,-2.6600000858306885,1.6800000667572021,2.799999952316284,91
17:11:12:942,0.010429024696350098,-0.009869575500488281,-0.02656334638595581,-1.160519003868103,-9.614361763000488,0.8135597109794617,-3.569999933242798,1.1200000047683716,3.009999990463257,91
17:11:12:982,-0.06439852714538574,-0.1878347396850586,0.04766261577606201,-1.2514461278915405,-9.839285850524902,0.8997013568878174,-2.380000114440918,1.3300000429153442,2.309999942779541,91
17:11:13:23,-0.01706230640411377,0.08135700225830078,0.026644468307495117,-1.2083754539489746,-9.549755096435547,0.8853443264961243,-0.3499999940395355,1.6100000143051147,1.8200000524520874,92
17:11:13:62,-0.053849220275878906,0.1780261993408203,0.04237246513366699,-1.2586246728897095,-9.408578872680664,0.9116654396057129,-4.96999979019165,1.2599999904632568,3.009999990463257,92
17:11:13:102,-0.029679536819458008,-0.049004554748535156,-0.08095753192901611,-1.2418749332427979,-9.647860527038574,0.7680960297584534,-5.25,1.399999976158142,3.640000104904175,92
17:11:13:143,0.008798837661743164,0.0507659912109375,0.1419738531112671,-1.2011969089508057,-9.535398483276367,1.026520848274231,-4.409999847412109,2.1700000762939453,4.269999980926514,92
17:11:13:182,0.037667155265808105,0.034870147705078125,0.10400784015655518,-1.1629117727279663,-9.542576789855957,1.0145567655563354,-4.96999979019165,1.8200000524520874,4.340000152587891,92
17:11:13:224,0.1277608871459961,-0.0008182525634765625,0.046835362911224365,-1.0408778190612793,-9.578469276428223,0.9690931439399719,-6.369999885559082,2.240000009536743,4.269999980926514,92
17:11:13:262,0.28597748279571533,-0.2629079818725586,-0.08504420518875122,-0.8111668825149536,-9.906286239624023,0.8159525394439697,-4.409999847412109,4.900000095367432,3.0799999237060547,92
17:11:13:302,0.27855271100997925,-0.14906883239746094,0.07936251163482666,-0.7489535212516785,-9.82971477508545,1.0001999139785767,-5.949999809265137,10.079999923706055,1.6800000667572021,92
17:11:13:345,0.28026992082595825,0.08556938171386719,-0.24087709188461304,-0.6771688461303711,-9.573683738708496,0.6197410225868225,-0.14000000059604645,15.960000038146973,0.7699999809265137,92
17:11:13:382,0.2510155439376831,0.2943382263183594,-0.29032883048057556,-0.6436693072319031,-9.291330337524414,0.4977070987224579,-1.190000057220459,21.139999389648438,1.399999976158142,92
17:11:13:423,0.005558133125305176,0.14550113677978516,-0.21503472328186035,-0.8877372145652771,-9.403792381286621,0.519242525100708,-5.110000133514404,29.96000099182129,3.009999990463257,92
17:11:13:463,0.004446506500244141,-0.08076763153076172,-0.13374269008636475,-0.8877372145652771,-9.650253295898438,0.5670989155769348,-7.210000038146973,34.09000015258789,5.25,92
17:11:13:502,-0.16298317909240723,-0.2617826461791992,-0.14910781383514404,-1.0959126949310303,-9.896714210510254,0.5144568681716919,-6.860000133514404,40.25,3.640000104904175,92
17:11:13:543,-0.06147325038909912,-0.11371326446533203,0.07596808671951294,-1.0097711086273193,-9.77707290649414,0.7585247755050659,-2.309999942779541,45.290000915527344,1.0499999523162842,92
17:11:13:581,-0.11617767810821533,-0.010572433471679688,0.056945979595184326,-1.093519926071167,-9.67657470703125,0.7537391781806946,-0.8400000333786011,46.130001068115234,-0.3499999940395355,92
17:11:13:617,-0.19439780712127686,0.03174114227294922,-0.12481224536895752,-1.2203395366668701,-9.626325607299805,0.5407779216766357,0.5600000023841858,47.11000061035156,-1.6100000143051147,92
17:11:13:656,-0.2684594392776489,0.19576263427734375,-0.07305014133453369,-1.361515998840332,-9.413363456726074,0.5742774605751038,-1.1200000047683716,48.02000045776367,-1.8200000524520874,92
17:11:13:700,-0.14202582836151123,0.10301017761230469,0.008558809757232666,-1.2705888748168945,-9.480363845825195,0.6580261588096619,-3.9200000762939453,47.7400016784668,0.699999988079071,92
17:11:13:741,-0.22847604751586914,-0.13773155212402344,-0.23626366257667542,-1.4141581058502197,-9.755537986755371,0.35413774847984314,-4.619999885559082,49.13999938964844,0.8400000333786011,92
17:11:13:784,-0.07558250427246094,-0.21355533599853516,-0.21198201179504395,-1.2801601886749268,-9.884750366210938,0.3254238963127136,-3.569999933242798,49.84000015258789,0.07000000029802322,92
17:11:13:822,-0.020266413688659668,-0.1689300537109375,-0.06047293543815613,-1.2299107313156128,-9.882357597351074,0.4618147313594818,3.009999990463257,50.189998626708984,-1.190000057220459,92
17:11:13:864,-0.0028134584426879883,-0.05091667175292969,0.05690586566925049,-1.2131611108779907,-9.77707290649414,0.5934200286865234,6.019999980926514,49.279998779296875,-2.309999942779541,92
17:11:13:904,-0.23770451545715332,0.2655467987060547,0.08955258131027222,-1.5074783563613892,-9.394222259521484,0.6484549045562744,11.0600004196167,46.619998931884766,-3.2899999618530273,92
17:11:13:942,-0.398817777633667,0.12438201904296875,0.07929903268814087,-1.7682960033416748,-9.504291534423828,0.6580261588096619,5.110000133514404,41.720001220703125,-2.799999952316284,92
17:11:13:982,-0.40710997581481934,0.028677940368652344,0.07109636068344116,-1.8783657550811768,-9.592825889587402,0.6675975918769836,3.7799999713897705,37.2400016784668,-2.7300000190734863,92
17:11:14:24,-0.3199450969696045,0.10908317565917969,0.2693597078323364,-1.8711872100830078,-9.485149383544922,0.9332008361816406,2.940000057220459,30.59000015258789,-1.5399999618530273,93
17:11:14:63,-0.21958518028259277,0.0700387954711914,0.34182870388031006,-1.8257235288619995,-9.506684303283691,1.0911270380020142,1.6800000667572021,23.940000534057617,-0.42000001668930054,93
17:11:14:104,-0.17949676513671875,0.048374176025390625,0.18349283933639526,-1.8305093050003052,-9.516255378723145,0.9786643981933594,1.9600000381469727,16.030000686645508,0.9100000262260437,93
17:11:14:143,-0.1761397123336792,0.2109823226928711,0.16402268409729004,-1.8711872100830078,-9.300901412963867,1.0001999139785767,1.9600000381469727,7.630000114440918,1.9600000381469727,93
17:11:14:183,-0.07582712173461914,0.1630420684814453,0.10633271932601929,-1.7898313999176025,-9.308080673217773,0.9690931439399719,-1.8899999856948853,0.49000000953674316,3.2200000286102295,93
17:11:14:224,-0.06449007987976074,0.028978347778320312,0.16163653135299683,-1.794616937637329,-9.434900283813477,1.0648061037063599,-7.490000247955322,-5.25,3.2200000286102295,93
17:11:14:263,0.09580576419830322,-0.009359359741210938,0.09868103265762329,-1.6103696823120117,-9.475577354431152,1.026520848274231,-7.559999942779541,-11.40999984741211,3.9200000762939453,93
17:11:14:303,0.05175936222076416,-0.1434001922607422,-0.026339292526245117,-1.6414762735366821,-9.645467758178711,0.8949156999588013,-8.75,-16.450000762939453,4.340000152587891,93
17:11:14:343,0.06055009365081787,-0.04006385803222656,0.021042227745056152,-1.6175479888916016,-9.55214786529541,0.9475577473640442,-7.699999809265137,-20.649999618530273,4.480000019073486,93
17:11:14:383,0.08863937854766846,-0.04736518859863281,-0.07505059242248535,-1.5672988891601562,-9.571290969848633,0.8327022790908813,-9.3100004196167,-24.71000099182129,5.039999961853027,93
17:11:14:424,0.1455676555633545,-0.013006210327148438,-0.11746823787689209,-1.4739787578582764,-9.540184020996094,0.760917603969574,-9.520000457763672,-28,5.039999961853027,93
17:11:14:464,0.1336824893951416,0.16379261016845703,-0.10163164138793945,-1.4524433612823486,-9.322437286376953,0.7513462901115417,-10.920000076293945,-29.889999389648438,5.880000114440918,93
17:11:14:504,0.11077463626861572,0.09274864196777344,-0.132990300655365,-1.447657585144043,-9.370293617248535,0.6867401003837585,-12.460000038146973,-32.40999984741211,7.980000019073486,93
17:11:14:543,0.07904839515686035,0.009114265441894531,-0.1580771803855896,-1.459621787071228,-9.45164966583252,0.6221339106559753,-12.670000076293945,-33.95000076293945,10.779999732971191,93
17:11:14:585,0.00006818771362304688,-0.19753456115722656,-0.2451457679271698,-1.5385849475860596,-9.707681655883789,0.4737788736820221,-9.449999809265137,-34.650001525878906,12.670000076293945,93
17:11:14:623,-0.06311583518981934,-0.2824544906616211,-0.06403279304504395,-1.6175479888916016,-9.863215446472168,0.638883650302887,-6.720000267028809,-34.86000061035156,11.550000190734863,93
17:11:14:663,-0.12706303596496582,-0.9036102294921875,-0.1335393190383911,-1.7132610082626343,-10.710273742675781,0.5359922647476196,-5.599999904632568,-37.029998779296875,4.269999980926514,93
17:11:14:704,0.2754584550857544,-0.13521099090576172,0.05205190181732178,-1.2418749332427979,-9.975677490234375,0.7345964908599854,1.6800000667572021,-38.220001220703125,-1.399999976158142,93
17:11:14:743,0.45007771253585815,0.5120515823364258,0.08184093236923218,-0.9547362923622131,-9.20040225982666,0.784845769405365,5.53000020980835,-39.900001525878906,-0.07000000029802322,93
17:11:14:785,0.1801220178604126,0.6776371002197266,0.08461534976959229,-1.179661512374878,-8.865407943725586,0.8087739944458008,5.53000020980835,-39.54999923706055,4.340000152587891,93
17:11:14:823,-0.01861429214477539,0.43108272552490234,0.09449189901351929,-1.3830513954162598,-9.004191398620605,0.8422735333442688,-7,-38.779998779296875,8.1899995803833,93
17:11:14:865,-0.20823156833648682,-0.03607177734375,-0.05457603931427002,-1.6247265338897705,-9.480363845825195,0.6795615553855896,-15.75,-38.92000198364258,10.779999732971191,93
17:11:14:903,-0.05555844306945801,-0.17051219940185547,0.11905115842819214,-1.4859429597854614,-9.657432556152344,0.882951557636261,-16.100000381469727,-37.310001373291016,10.850000381469727,93
17:11:14:944,0.256091833114624,-0.2474365234375,0.24263876676559448,-1.1102697849273682,-9.796216011047363,1.0671988725662231,-12.180000305175781,-38.36000061035156,9.800000190734863,93
17:11:14:983,0.22401607036590576,-0.2075204849243164,0.16922563314437866,-1.0863415002822876,-9.80817985534668,1.0360921621322632,-9.449999809265137,-38.56999969482422,7.490000247955322,93
17:11:15:25,0.050957560539245605,-0.36701393127441406,-0.11730152368545532,-1.246660590171814,-10.059426307678223,0.7202396392822266,-8.399999618530273,-37.65999984741211,4.760000228881836,92
17:11:15:65,0.21879208087921143,0.012670516967773438,-0.10149824619293213,-1.0241280794143677,-9.67657470703125,0.7106683850288391,-3.990000009536743,-34.720001220703125,3.2200000286102295,92
17:11:15:104,0.21140456199645996,0.2034759521484375,-0.16159749031066895,-0.9786643981933594,-9.434900283813477,0.6101697683334351,-4.340000152587891,-30.59000015258789,3.640000104904175,92
17:11:15:144,0.3835204243659973,0.05558300018310547,-0.11013537645339966,-0.7106683850288391,-9.568897247314453,0.6340980529785156,-5.53000020980835,-25.760000228881836,4.760000228881836,92
17:11:15:185,0.3910437822341919,-0.05698966979980469,-0.09576535224914551,-0.605384111404419,-9.695716857910156,0.6245267391204834,-3.569999933242798,-16.65999984741211,4.550000190734863,92
17:11:15:224,0.303263783454895,0.0022640228271484375,-0.06895524263381958,-0.6173481941223145,-9.635896682739258,0.6340980529785156,-4.130000114440918,-8.399999618530273,3.430000066757202,92
17:11:15:266,0.2004973292350769,-0.04413127899169922,-0.11450624465942383,-0.6699903011322021,-9.69332504272461,0.5599204897880554,-2.5899999141693115,1.190000057220459,2.5199999809265137,92
17:11:15:303,0.09339874982833862,0.006809234619140625,-0.041834235191345215,-0.7537391781806946,-9.640682220458984,0.6221339106559753,-2.309999942779541,8.960000038146973,1.5399999618530273,92
17:11:15:344,0.0364338755607605,0.17198753356933594,0.07373106479644775,-0.8015955686569214,-9.432506561279297,0.7561319470405579,-3.569999933242798,14.630000114440918,1.1200000047683716,92
17:11:15:384,-0.12016505002975464,0.038048744201660156,0.08387017250061035,-0.9882357716560364,-9.556933403015137,0.787238597869873,-6.090000152587891,20.09000015258789,1.4700000286102295,92
17:11:15:425,-0.13824570178985596,-0.011674880981445312,0.03455376625061035,-1.0408778190612793,-9.609575271606445,0.7465606331825256,-6.090000152587891,25.270000457763672,3.009999990463257,92
17:11:15:466,0.040629804134368896,-0.14716625213623047,-0.024041950702667236,-0.851844847202301,-9.781858444213867,0.6819544434547424,-3.7100000381469727,31.43000030517578,3.8499999046325684,92
17:11:15:505,-0.07660889625549316,-0.1904754638671875,-0.11111795902252197,-0.9882357716560364,-9.872786521911621,0.5670989155769348,-0.49000000953674316,36.540000915527344,3.0799999237060547,92
17:11:15:544,-0.000030875205993652344,0.010332107543945312,-0.20949256420135498,-0.9116654396057129,-9.66939640045166,0.4163511395454407,1.190000057220459,41.58000183105469,2.240000009536743,92
17:11:15:585,0.0765455961227417,-0.03193378448486328,-0.19439369440078735,-0.8159525394439697,-9.719645500183105,0.38285160064697266,3.3600001335144043,48.5099983215332,1.3300000429153442,92
17:11:15:624,-0.03639066219329834,0.1237649917602539,0.012939810752868652,-0.9379864931106567,-9.533005714416504,0.5934200286865234,4.340000152587891,54.25,1.3300000429153442,92
17:11:15:665,-0.24925220012664795,0.028184890747070312,0.03906571865081787,-1.2131611108779907,-9.621540069580078,0.6293123364448547,0.6299999952316284,58.939998626708984,-1.3300000429153442,92
17:11:15:705,-0.35828518867492676,-0.025308609008789062,-0.045317769050598145,-1.411765456199646,-9.681360244750977,0.5335994362831116,3.7799999713897705,62.369998931884766,-2.0299999713897705,92
17:11:15:744,-0.5144248008728027,0.019952774047851562,-0.02668297290802002,-1.6965112686157227,-9.631111145019531,0.5455635190010071,6.929999828338623,63.349998474121094,-2.5199999809265137,92
17:11:15:785,-0.49959564208984375,0.09444618225097656,0.13179433345794678,-1.8065810203552246,-9.533005714416504,0.7369893789291382,5.670000076293945,60.900001525878906,-3.5,92
17:11:15:825,-0.5221890211105347,0.08895683288574219,0.22986221313476562,-1.9597216844558716,-9.516255378723145,0.8925228118896484,4.199999809265137,57.04999923706055,-4.059999942779541,92
17:11:15:867,-0.47135043144226074,0.19559192657470703,0.17623275518417358,-2.0267207622528076,-9.360722541809082,0.882951557636261,2.940000057220459,51.939998626708984,-3.7799999713897705,92
17:11:15:904,-0.41919398307800293,0.14690303802490234,0.2386133074760437,-2.0793628692626953,-9.372685432434082,1.0049854516983032,0.2800000011920929,44.72999954223633,-3.2899999618530273,92
17:11:15:946,-0.3698117733001709,-0.01647663116455078,0.14303427934646606,-2.122433662414551,-9.540184020996094,0.9451649785041809,-3.2200000286102295,37.380001068115234,-2.380000114440918,92
17:11:15:984,-0.2786210775375366,-0.0897512435913086,0.11825591325759888,-2.100898265838623,-9.635896682739258,0.9499505758285522,-3.2899999618530273,29.469999313354492,-1.8899999856948853,92
17:11:16:26,-0.05444216728210449,-0.018201828002929688,0.10034745931625366,-1.8903299570083618,-9.568897247314453,0.9571290016174316,-3.0799999237060547,22.68000030517578,-1.6800000667572021,92
17:11:16:65,0.0445023775100708,0.2189769744873047,0.03624999523162842,-1.7802598476409912,-9.276973724365234,0.9020940661430359,-3.1500000953674316,17.5,-1.190000057220459,92
17:11:16:105,0.09302949905395508,0.1043539047241211,0.038571298122406006,-1.7084753513336182,-9.365508079528809,0.9140582084655762,-4.130000114440918,11.34000015258789,0.3499999940395355,92
17:11:16:145,-0.015546560287475586,-0.03902912139892578,0.06339949369430542,-1.8209381103515625,-9.518648147583008,0.9547362923622131,-7.210000038146973,5.320000171661377,0.9800000190734863,92
17:11:16:186,-0.10815012454986572,-0.11353683471679688,-0.023936450481414795,-1.9405791759490967,-9.621540069580078,0.861416220664978,-7.769999980926514,-0.42000001668930054,0.9100000262260437,92
17:11:16:225,-0.04057788848876953,0.02019786834716797,0.12250590324401855,-1.8831514120101929,-9.482755661010742,1.038485050201416,-6.440000057220459,-8.260000228881836,0.9800000190734863,92
17:11:16:267,0.044108033180236816,-0.03361320495605469,0.06737661361694336,-1.7874385118484497,-9.54496955871582,1.0001999139785767,-6.860000133514404,-16.309999465942383,1.8200000524520874,92
17:11:16:304,0.018058061599731445,0.040108680725097656,-0.05521148443222046,-1.8089739084243774,-9.461220741271973,0.8638089299201965,-6.860000133514404,-23.520000457763672,2.940000057220459,92
17:11:16:346,0.13313055038452148,-0.006197929382324219,-0.015455245971679688,-1.660618782043457,-9.509077072143555,0.8997013568878174,-7.28000020980835,-28.979999542236328,3.569999933242798,92
17:11:16:385,0.1658463478088379,0.09075450897216797,-0.06213492155075073,-1.5864413976669312,-9.389435768127441,0.8374879360198975,-8.470000267028809,-33.11000061035156,4.760000228881836,92
17:11:16:426,0.11544883251190186,-0.2030506134033203,-0.22007691860198975,-1.6079767942428589,-9.734003067016602,0.6245267391204834,-7.630000114440918,-37.310001373291016,4.550000190734863,92
17:11:16:465,0.0655595064163208,-0.038013458251953125,0.005792975425720215,-1.6414762735366821,-9.578469276428223,0.851844847202301,-6.440000057220459,-40.599998474121094,4.829999923706055,92
17:11:16:506,-0.029865622520446777,-0.1452655792236328,-0.1887056827545166,-1.7443678379058838,-9.722038269042969,0.6101697683334351,-7.139999866485596,-45.08000183105469,5.179999828338623,92
17:11:16:545,-0.02772080898284912,0.061814308166503906,-0.12416493892669678,-1.7491532564163208,-9.499505043029785,0.6436693072319031,-8.329999923706055,-48.790000915527344,6.159999847412109,92
17:11:16:586,0.11182141304016113,0.0839071273803711,-0.09933197498321533,-1.581655740737915,-9.456435203552246,0.6436693072319031,-8.609999656677246,-52.08000183105469,7.699999809265137,92
17:11:16:626,0.20431256294250488,0.023097991943359375,-0.020123600959777832,-1.4380863904953003,-9.511469841003418,0.7178468108177185,-10.220000267028809,-55.439998626708984,8.609999656677246,92
17:11:16:671,0.26107728481292725,-0.05426311492919922,-0.027584433555603027,-1.3160523176193237,-9.602396965026855,0.7034898400306702,-10.920000076293945,-56.90999984741211,8.819999694824219,92
17:11:16:700,0.31414592266082764,-0.21377944946289062,-0.06800973415374756,-1.184447169303894,-9.81535816192627,0.6460621356964111,-9.520000457763672,-57.26000213623047,9.029999732971191,92
17:11:16:745,0.2800304889678955,-0.21122360229492188,-0.083121657371521,-1.1485549211502075,-9.865608215332031,0.6101697683334351,-3.990000009536743,-55.29999923706055,8.1899995803833,92
17:11:16:786,0.22402441501617432,-0.1306934356689453,-0.08755415678024292,-1.1485549211502075,-9.817750930786133,0.5838487148284912,-2.380000114440918,-52.36000061035156,7.349999904632568,92
17:11:16:826,0.16581976413726807,0.0906991958618164,0.12712520360946655,-1.1653046607971191,-9.573683738708496,0.8303093910217285,1.8200000524520874,-49.77000045776367,7.420000076293945,92
17:11:16:867,0.19391202926635742,0.11658763885498047,0.2050701379776001,-1.0887343883514404,-9.518648147583008,0.9595218896865845,0.8400000333786011,-49.630001068115234,7.769999980926514,92
17:11:16:905,0.13790130615234375,0.10666942596435547,0.23296940326690674,-1.1102697849273682,-9.501898765563965,1.0456634759902954,2.799999952316284,-47.880001068115234,8.399999618530273,92
17:11:16:946,0.04523634910583496,0.10064983367919922,0.13086211681365967,-1.191625714302063,-9.482755661010742,0.9762716889381409,-0.42000001668930054,-45.63999938964844,8.680000305175781,92
17:11:16:985,0.11467373371124268,0.05754852294921875,0.18508851528167725,-1.093519926071167,-9.511469841003418,1.0767701864242554,-2.0999999046325684,-42.97999954223633,8.609999656677246,92
17:11:17:27,0.07642495632171631,-0.1702718734741211,0.12892818450927734,-1.112662434577942,-9.781858444213867,1.0528419017791748,-3.5,-39.970001220703125,8.329999923706055,92
17:11:17:66,0.16259551048278809,0.022665023803710938,0.20076978206634521,-0.9858429431915283,-9.58325481414795,1.1748759746551514,-0.3499999940395355,-35.90999984741211,7.349999904632568,92
17:11:17:106,0.2927883267402649,0.09853172302246094,0.27929985523223877,-0.7824530005455017,-9.482755661010742,1.3232309818267822,-1.6100000143051147,-33.31999969482422,6.300000190734863,92
17:11:17:146,0.1614888310432434,0.12476730346679688,0.20429730415344238,-0.8733802437782288,-9.425328254699707,1.2993026971817017,-3.2899999618530273,-28.770000457763672,5.179999828338623,92
17:11:17:187,0.11770552396774292,0.07492828369140625,0.13855254650115967,-0.8877372145652771,-9.456435203552246,1.2681961059570312,-6.159999847412109,-24.850000381469727,4.619999885559082,92
17:11:17:226,0.01567983627319336,-0.07596969604492188,0.12615609169006348,-0.9858429431915283,-9.626325607299805,1.2873386144638062,-5.740000247955322,-19.110000610351562,4.269999980926514,92
17:11:17:268,0.10251402854919434,0.0062236785888671875,0.11432456970214844,-0.8733802437782288,-9.542576789855957,1.3040882349014282,-5.389999866485596,-13.510000228881836,4.409999847412109,92
17:11:17:305,0.07243996858596802,-0.1060476303100586,0.14314472675323486,-0.8853443264961243,-9.681360244750977,1.368694543838501,-6.300000190734863,-8.399999618530273,4.130000114440918,92
17:11:17:347,0.1594076156616211,-0.05420970916748047,0.15280091762542725,-0.7585247755050659,-9.643074989318848,1.4165509939193726,-4.130000114440918,-3.3600001335144043,3.5,92
17:11:17:386,0.16581124067306519,0.1595439910888672,0.1337263584136963,-0.7106683850288391,-9.389435768127441,1.430907964706421,-2.6600000858306885,0.9800000190734863,3.5,92
17:11:17:427,0.06947851181030273,0.09892082214355469,0.05529618263244629,-0.7896314859390259,-9.425328254699707,1.3663017749786377,-4.269999980926514,4.550000190734863,3.640000104904175,92
17:11:17:466,0.00389784574508667,-0.001262664794921875,0.10549330711364746,-0.8542376756668091,-9.525827407836914,1.442872166633606,-3.1500000953674316,9.800000190734863,2.5899999141693115,92
17:11:17:507,-0.1481081247329712,-0.08140850067138672,0.17436468601226807,-1.0432707071304321,-9.626325607299805,1.5553346872329712,-2.5199999809265137,13.720000267028809,1.2599999904632568,92
17:11:17:546,-0.17591416835784912,-0.10532569885253906,0.049521684646606445,-1.1150553226470947,-9.67657470703125,1.442872166633606,-1.4700000286102295,17.639999389648438,-0.7699999809265137,92
17:11:17:587,-0.18475931882858276,-0.005776405334472656,0.04727435111999512,-1.1700903177261353,-9.578469276428223,1.4524433612823486,-1.6800000667572021,19.739999771118164,-1.0499999523162842,92
17:11:17:627,-0.0942082405090332,0.08343505859375,0.009105563163757324,-1.1030912399291992,-9.468399047851562,1.4165509939193726,-2.380000114440918,21.770000457763672,-1.1200000047683716,92
17:11:17:666,0.0031180381774902344,0.09737586975097656,0.001541733741760254,-1.0049854516983032,-9.430113792419434,1.4093725681304932,-2.799999952316284,23.940000534057617,-0.7699999809265137,92
17:11:17:707,0.0024944543838500977,0.010901451110839844,-0.044708847999572754,-1.0049854516983032,-9.513862609863281,1.3519448041915894,-2.5199999809265137,25.969999313354492,-0.8400000333786011,92
17:11:17:746,-0.05926072597503662,0.025949478149414062,-0.03768134117126465,-1.0815558433532715,-9.492327690124512,1.3495519161224365,-1.8899999856948853,28.06999969482422,-1.75,92
17:11:17:787,-0.09717929363250732,-0.12280845642089844,-0.043544769287109375,-1.1437692642211914,-9.671788215637207,1.3328022956848145,-2.799999952316284,29.1200008392334,-2.240000009536743,92
17:11:17:827,-0.22705554962158203,-0.0695333480834961,0.08193385601043701,-1.3304094076156616,-9.635896682739258,1.4787644147872925,0.6299999952316284,29.540000915527344,-2.0299999713897705,92
17:11:17:869,-0.3309565782546997,-0.03839874267578125,0.05597567558288574,-1.5170495510101318,-9.614361763000488,1.4668002128601074,0.6299999952316284,28.350000381469727,-1.0499999523162842,92
17:11:17:906,-0.22456574440002441,0.11859321594238281,0.12326514720916748,-1.4668002128601074,-9.42772102355957,1.5649060010910034,4.269999980926514,26.880001068115234,-0.5600000023841858,92
17:11:17:948,-0.11456787586212158,0.08147430419921875,0.19432497024536133,-1.3854442834854126,-9.44447135925293,1.6845470666885376,1.5399999618530273,24.010000228881836,-0.5600000023841858,92
17:11:17:986,-0.0074269771575927734,0.10346508026123047,0.08080387115478516,-1.2801601886749268,-9.396614074707031,1.5912269353866577,1.2599999904632568,22.68000030517578,-0.5600000023841858,92
17:11:18:28,-0.004027247428894043,0.061715126037597656,0.014872550964355469,-1.277767300605774,-9.422935485839844,1.529013752937317,0.9100000262260437,22.049999237060547,-0.07000000029802322,91
17:11:18:69,-0.020450115203857422,0.08382892608642578,0.06741142272949219,-1.2993026971817017,-9.379864692687988,1.5984054803848267,-0.14000000059604645,21.06999969482422,-0.07000000029802322,91
17:11:18:106,-0.09867310523986816,-0.015249252319335938,0.0462721586227417,-1.4021940231323242,-9.482755661010742,1.588834285736084,-1.6800000667572021,19.8799991607666,0.07000000029802322,91
17:11:18:148,-0.11913800239562988,-0.11365509033203125,-0.010838747024536133,-1.4524433612823486,-9.609575271606445,1.529013752937317,-2.870000123977661,18.200000762939453,-0.14000000059604645,91
17:11:18:186,-0.08382487297058105,-0.044981956481933594,0.13489830493927002,-1.4380863904953003,-9.55214786529541,1.7084753513336182,-1.4700000286102295,16.030000686645508,-0.2800000011920929,91
17:11:18:228,-0.07088851928710938,0.08461189270019531,0.12323260307312012,-1.442872166633606,-9.401400566101074,1.727617859840393,-1.1200000047683716,13.15999984741211,0.07000000029802322,91
17:11:18:267,-0.026082515716552734,0.07343196868896484,0.08135771751403809,-1.4045867919921875,-9.394222259521484,1.7060824632644653,-0.9100000262260437,10.5,0.3499999940395355,91
17:11:18:307,-0.10700774192810059,0.1602010726928711,0.0248868465423584,-1.5122638940811157,-9.267402648925781,1.65583336353302,-2.6600000858306885,8.119999885559082,0.8400000333786011,91
17:11:18:348,-0.03966403007507324,-0.0000934600830078125,-0.014547109603881836,-1.4548362493515015,-9.42772102355957,1.6127625703811646,-5.110000133514404,6.369999885559082,1.5399999618530273,91
17:11:18:387,-0.04513084888458252,-0.0804738998413086,-0.053751468658447266,-1.4715858697891235,-9.528220176696777,1.5601203441619873,-5.740000247955322,3.7799999713897705,2.5899999141693115,91
17:11:18:428,0.007923245429992676,-0.05672168731689453,0.043140530586242676,-1.4165509939193726,-9.518648147583008,1.6677974462509155,-4.550000190734863,2.309999942779541,2.940000057220459,91
17:11:18:467,-0.04534637928009033,-0.03580665588378906,-0.0726860761642456,-1.4811571836471558,-9.506684303283691,1.5337992906570435,-4.96999979019165,1.4700000286102295,3.5,91
17:11:18:507,0.019236326217651367,0.0996103286743164,-0.008378267288208008,-1.411765456199646,-9.346364974975586,1.5960125923156738,-4.619999885559082,-1.5399999618530273,3.990000009536743,91
17:11:18:548,0.030703306198120117,-0.012196540832519531,0.012439966201782227,-1.392622709274292,-9.461220741271973,1.6199408769607544,-5.670000076293945,-3.8499999046325684,5.039999961853027,91
17:11:18:587,0.018819689750671387,-0.05569934844970703,0.021437644958496094,-1.3998013734817505,-9.518648147583008,1.6342979669570923,-5.110000133514404,-5.599999904632568,4.480000019073486,91
17:11:18:629,0.08396899700164795,-0.004360198974609375,0.0152357816696167,-1.3136597871780396,-9.468399047851562,1.6319050788879395,-4.619999885559082,-6.860000133514404,4.409999847412109,91
17:11:18:668,0.05568981170654297,0.07308292388916016,-0.0777815580368042,-1.3280165195465088,-9.372685432434082,1.5194424390792847,-6.230000019073486,-7.699999809265137,4.760000228881836,91
17:11:18:707,0.1153794527053833,0.14652156829833984,-0.09093916416168213,-1.239482045173645,-9.262616157531738,1.4835500717163086,-8.609999656677246,-7.840000152587891,5.389999866485596,91
17:11:18:748,0.11718881130218506,-0.11440849304199219,-0.051694631576538086,-1.2083754539489746,-9.55214786529541,1.509871006011963,-10.079999923706055,-7.349999904632568,6.789999961853027,91
17:11:18:787,0.12246489524841309,-0.23126792907714844,-0.054755449295043945,-1.1724830865859985,-9.726823806762695,1.4931212663650513,-4.96999979019165,-6.159999847412109,6.579999923706055,91
17:11:18:827,0.09031486511230469,-0.2443561553955078,-0.05337560176849365,-1.1820544004440308,-9.80100154876709,1.4811571836471558,-3.3600001335144043,-5.809999942779541,5.039999961853027,91
17:11:18:869,-0.05600333213806152,-0.0002307891845703125,-0.09247112274169922,-1.3423734903335571,-9.556933403015137,1.4189438819885254,-0.5600000023841858,-5.179999828338623,3.569999933242798,91
17:11:18:907,-0.10988736152648926,0.1357278823852539,-0.03569185733795166,-1.423729419708252,-9.387042999267578,1.4668002128601074,-4.199999809265137,-5.039999961853027,3.7799999713897705,91
17:11:18:948,0.007803082466125488,0.09326744079589844,0.04993116855621338,-1.3040882349014282,-9.4061861038208,1.5649060010910034,-5.179999828338623,-4.269999980926514,4.619999885559082,91
17:11:18:988,0.033041954040527344,0.0018720626831054688,0.011231064796447754,-1.2705888748168945,-9.497113227844238,1.529013752937317,-4.96999979019165,-4.059999942779541,5.53000020980835,91
17:11:19:26,-0.02525150775909424,0.005326271057128906,0.04152703285217285,-1.3351951837539673,-9.492327690124512,1.56969153881073,-4.409999847412109,-2.7300000190734863,5.110000133514404,90
17:11:19:70,0.006598472595214844,-0.01679515838623047,-0.024205923080444336,-1.3016955852508545,-9.518648147583008,1.497907042503357,-4.340000152587891,-1.8899999856948853,5.110000133514404,90
17:11:19:107,0.026335716247558594,0.02484893798828125,-0.0021364688873291016,-1.275374412536621,-9.470791816711426,1.5194424390792847,-4.130000114440918,-0.9800000190734863,5.039999961853027,90
17:11:19:149,0.0899817943572998,0.033278465270996094,0.04231858253479004,-1.1892328262329102,-9.454042434692383,1.574477195739746,-2.799999952316284,-0.3499999940395355,4.130000114440918,90
17:11:19:188,-0.02372753620147705,-0.028890609741210938,-0.05994367599487305,-1.3088740110397339,-9.523433685302734,1.4572290182113647,-3.8499999046325684,0.7699999809265137,3.009999990463257,90
17:11:19:228,-0.09172391891479492,-0.04034137725830078,0.013301253318786621,-1.3998013734817505,-9.54496955871582,1.5337992906570435,-4.199999809265137,2.1700000762939453,2.1700000762939453,90
17:11:19:270,-0.07146477699279785,0.12661075592041016,0.018298029899597168,-1.3974084854125977,-9.346364974975586,1.5433706045150757,-3.7100000381469727,2.6600000858306885,2.309999942779541,90
17:11:19:308,-0.05717182159423828,0.06683158874511719,0.03952372074127197,-1.3974084854125977,-9.389435768127441,1.574477195739746,-3.569999933242798,2.6600000858306885,2.799999952316284,90
17:11:19:349,-0.057222962379455566,-0.08436107635498047,0.04693305492401123,-1.411765456199646,-9.561718940734863,1.5936198234558105,-3.990000009536743,1.6800000667572021,3.2899999618530273,90
17:11:19:387,-0.05917811393737793,-0.03303241729736328,-0.0371096134185791,-1.428515076637268,-9.518648147583008,1.5002998113632202,-4.269999980926514,1.8200000524520874,2.450000047683716,90
17:11:19:430,0.08282697200775146,0.036744117736816406,-0.0756298303604126,-1.2658032178878784,-9.439685821533203,1.442872166633606,-3.3600001335144043,1.75,2.0299999713897705,90
17:11:19:468,-0.06582224369049072,-0.0318603515625,-0.05284690856933594,-1.430907964706421,-9.516255378723145,1.4524433612823486,-4.480000019073486,1.8899999856948853,1.5399999618530273,90
17:11:19:509,-0.09859991073608398,-0.014002799987792969,-0.03844892978668213,-1.4883356094360352,-9.501898765563965,1.4572290182113647,-4.550000190734863,2.6600000858306885,1.6100000143051147,90
17:11:19:548,-0.0769658088684082,-0.16434288024902344,0.06112515926361084,-1.4859429597854614,-9.69332504272461,1.5720844268798828,-4.480000019073486,1.8899999856948853,1.399999976158142,90
17:11:19:589,-0.01754462718963623,0.06569480895996094,-0.029584407806396484,-1.430907964706421,-9.446864128112793,1.4739787578582764,-1.2599999904632568,2.799999952316284,1.3300000429153442,90
17:11:19:629,-0.0025501251220703125,0.18463993072509766,0.02227461338043213,-1.4165509939193726,-9.281759262084961,1.5314064025878906,-3.009999990463257,2.0299999713897705,2.240000009536743,90
17:11:19:671,-0.005868673324584961,0.1496257781982422,0.03504800796508789,-1.4213367700576782,-9.279366493225098,1.5529417991638184,-3.640000104904175,1.6800000667572021,3.2200000286102295,90
17:11:19:708,-0.021923303604125977,-0.0008974075317382812,0.04909539222717285,-1.442872166633606,-9.430113792419434,1.5792629718780518,-6.510000228881836,0.6299999952316284,4.059999942779541,90
17:11:19:748,0.005432605743408203,-0.0849456787109375,0.05650460720062256,-1.4141581058502197,-9.535398483276367,1.6007983684539795,-5.25,0.14000000059604645,3.569999933242798,90
17:11:19:840,0.015831470489501953,0.010528564453125,0.03563237190246582,-1.3998013734817505,-9.437292098999023,1.588834285736084,-4.269999980926514,0.14000000059604645,3.2200000286102295,90
17:11:19:846,-0.008391499519348145,-0.07771873474121094,-0.07486414909362793,-1.4261221885681152,-9.54496955871582,1.459621787071228,-5.389999866485596,-0.49000000953674316,3.0799999237060547,90
17:11:19:868,-0.0028848648071289062,-0.06983184814453125,0.014764666557312012,-1.4213367700576782,-9.554540634155273,1.5529417991638184,-3.7100000381469727,-0.3499999940395355,2.870000123977661,90
17:11:19:905,-0.04442143440246582,-0.027151107788085938,0.027125835418701172,-1.4739787578582764,-9.518648147583008,1.5720844268798828,-3.9200000762939453,-0.7699999809265137,2.309999942779541,90
17:11:19:947,0.06400430202484131,0.03379249572753906,0.05232882499694824,-1.3495519161224365,-9.449256896972656,1.6103696823120117,-3.640000104904175,-2.0299999713897705,1.6800000667572021,90
17:11:19:988,0.060774803161621094,0.12466239929199219,0.03420603275299072,-1.3375877141952515,-9.327221870422363,1.6007983684539795,-3.0799999237060547,-2.0999999046325684,1.8200000524520874,90
17:11:20:32,0.01416313648223877,-0.11275291442871094,-0.08749067783355713,-1.380658507347107,-9.592825889587402,1.4572290182113647,-4.900000095367432,-1.399999976158142,2.0299999713897705,90
17:11:20:69,-0.003983736038208008,-0.048089027404785156,-0.01830756664276123,-1.3998013734817505,-9.540184020996094,1.521835207939148,-3.009999990463257,-0.07000000029802322,2.309999942779541,90
17:11:20:111,0.012127280235290527,0.06872749328613281,-0.008903264999389648,-1.380658507347107,-9.4061861038208,1.529013752937317,-2.799999952316284,-0.07000000029802322,2.870000123977661,90
17:11:20:151,0.07670080661773682,0.08561038970947266,0.013934135437011719,-1.2969098091125488,-9.367900848388672,1.5553346872329712,-5.53000020980835,-0.49000000953674316,3.2899999618530273,90
17:11:20:193,0.1781303882598877,0.007231712341308594,0.09920322895050049,-1.1509476900100708,-9.44447135925293,1.6654045581817627,-3.2899999618530273,-0.07000000029802322,3.2899999618530273,90
17:11:20:229,-0.11209189891815186,-0.03441429138183594,-0.05080699920654297,-1.4691929817199707,-9.494720458984375,1.5026925802230835,-4.900000095367432,0.9100000262260437,2.5899999141693115,90
17:11:20:278,-0.01884591579437256,-0.008388519287109375,-0.006188869476318359,-1.380658507347107,-9.470791816711426,1.5457634925842285,-4.269999980926514,1.1200000047683716,2.450000047683716,90
17:11:20:308,-0.028476715087890625,0.0066890716552734375,-0.022179365158081055,-1.3974084854125977,-9.454042434692383,1.5242280960083008,-5.389999866485596,1.1200000047683716,2.799999952316284,90
17:11:20:350,0.10930252075195312,-0.06356239318847656,0.05308413505554199,-1.2323036193847656,-9.540184020996094,1.6127625703811646,-4.760000228881836,1.399999976158142,2.450000047683716,90
17:11:20:388,0.04724264144897461,-0.016393661499023438,-0.03793168067932129,-1.2825528383255005,-9.497113227844238,1.5122638940811157,-3.9200000762939453,0.9800000190734863,2.380000114440918,90
17:11:20:430,0.01673722267150879,0.11896896362304688,0.015596747398376465,-1.3088740110397339,-9.332008361816406,1.56969153881073,-3.5,1.6100000143051147,2.309999942779541,90
17:11:20:470,0.076560378074646,0.05689048767089844,0.020134568214416504,-1.2299107313156128,-9.379864692687988,1.5792629718780518,-4.059999942779541,1.9600000381469727,2.7300000190734863,90
17:11:20:510,-0.08423542976379395,-0.07317161560058594,-0.016434788703918457,-1.411765456199646,-9.528220176696777,1.5385849475860596,-3.430000066757202,1.8899999856948853,2.450000047683716,90
17:11:20:571,-0.04058873653411865,0.021862030029296875,0.023223161697387695,-1.3782659769058228,-9.42772102355957,1.5840486288070679,-4.480000019073486,1.6100000143051147,2.0999999046325684,90
17:11:20:588,-0.03247106075286865,-0.038023948669433594,0.018578529357910156,-1.3782659769058228,-9.497113227844238,1.5840486288070679,-5.179999828338623,1.6100000143051147,2.5199999809265137,90
17:11:20:631,0.03719377517700195,-0.015104293823242188,0.026348233222961426,-1.2993026971817017,-9.477970123291016,1.5984054803848267,-3.8499999046325684,1.6800000667572021,2.1700000762939453,90
17:11:20:671,0.01444101333618164,-0.04079723358154297,0.01342165470123291,-1.3184452056884766,-9.513862609863281,1.588834285736084,-3.2899999618530273,1.8899999856948853,2.0999999046325684,90
17:11:20:710,0.00006711483001708984,-0.009667396545410156,0.04136538505554199,-1.3328022956848145,-9.485149383544922,1.6271194219589233,-3.0799999237060547,1.6100000143051147,2.450000047683716,90
17:11:20:749,-0.0401456356048584,-0.023047447204589844,0.04266345500946045,-1.3830513954162598,-9.504291534423828,1.6390833854675293,-3.2899999618530273,1.4700000286102295,2.380000114440918,90
17:11:20:790,-0.016802430152893066,-0.026094436645507812,-0.05583930015563965,-1.3639088869094849,-9.513862609863281,1.526620864868164,-4.059999942779541,1.1200000047683716,2.450000047683716,90
17:11:20:830,0.036328673362731934,0.005923271179199219,0.03381311893463135,-1.3016955852508545,-9.480363845825195,1.6247265338897705,-3.2899999618530273,1.2599999904632568,2.380000114440918,90
17:11:20:871,-0.06473565101623535,0.03345298767089844,-0.05143404006958008,-1.4189438819885254,-9.44447135925293,1.526620864868164,-4.130000114440918,1.1200000047683716,2.5199999809265137,90
17:11:20:909,0.0037250518798828125,-0.011522293090820312,-0.0009478330612182617,-1.3495519161224365,-9.492327690124512,1.576870083808899,-3.7799999713897705,0.7699999809265137,2.309999942779541,90
17:11:20:950,-0.002762913703918457,0.088409423828125,0.03944122791290283,-1.356730580329895,-9.370293617248535,1.6271194219589233,-4.059999942779541,0.5600000023841858,2.380000114440918,90
17:11:20:989,0.030332326889038086,-0.028814315795898438,0.03729581832885742,-1.3160523176193237,-9.494720458984375,1.6342979669570923,-4.340000152587891,0.14000000059604645,2.5199999809265137,90
17:11:21:31,-0.03507637977600098,0.051604270935058594,-0.004620194435119629,-1.3902300596237183,-9.401400566101074,1.5912269353866577,-3.990000009536743,0.21000000834465027,2.380000114440918,90
17:11:21:70,0.06956601142883301,-0.07357215881347656,-0.02858138084411621,-1.2681961059570312,-9.54496955871582,1.5601203441619873,-4.340000152587891,0.42000001668930054,2.380000114440918,90
17:11:21:111,-0.06877386569976807,-0.0110015869140625,-0.04775035381317139,-1.423729419708252,-9.485149383544922,1.529013752937317,-3.990000009536743,0.8400000333786011,2.5899999141693115,90
17:11:21:150,0.05217921733856201,0.05436897277832031,0.01922738552093506,-1.289731502532959,-9.4061861038208,1.6007983684539795,-3.7100000381469727,1.4700000286102295,2.5899999141693115,90
17:11:21:191,-0.006112933158874512,-0.013932228088378906,0.026867389678955078,-1.3495519161224365,-9.477970123291016,1.6151552200317383,-5.809999942779541,0.14000000059604645,3.2899999618530273,90
17:11:21:230,0.01616644859313965,0.061595916748046875,0.029150962829589844,-1.3232309818267822,-9.387042999267578,1.6247265338897705,-3.7799999713897705,0.5600000023841858,3.0799999237060547,90
17:11:21:271,0.06653249263763428,-0.036865234375,-0.009221553802490234,-1.2562319040298462,-9.494720458984375,1.5840486288070679,-4.619999885559082,-0.07000000029802322,2.7300000190734863,90
17:11:21:310,-0.03482985496520996,-0.10031986236572266,-0.07246208190917969,-1.3663017749786377,-9.58325481414795,1.5026925802230835,-4.900000095367432,0.49000000953674316,2.7300000190734863,90
17:11:21:349,-0.06423485279083252,-0.013256072998046875,0.022429227828979492,-1.411765456199646,-9.499505043029785,1.6031911373138428,-4.96999979019165,0.9800000190734863,2.0999999046325684,90
17:11:21:397,-0.05330204963684082,0.0008792877197265625,-0.04905557632446289,-1.4141581058502197,-9.485149383544922,1.5194424390792847,-5.039999961853027,0.9100000262260437,2.240000009536743,90
17:11:21:429,0.09901344776153564,0.035160064697265625,0.027754545211791992,-1.2370892763137817,-9.442078590393066,1.6031911373138428,-3.1500000953674316,0.9800000190734863,2.5199999809265137,90
17:11:21:470,0.031354308128356934,0.07598495483398438,0.012632250785827637,-1.2969098091125488,-9.382257461547852,1.5912269353866577,-5.039999961853027,0.3499999940395355,3.0799999237060547,90
17:11:21:508,0.01551210880279541,-0.06363868713378906,-0.0186079740524292,-1.3088740110397339,-9.53779125213623,1.5553346872329712,-3.430000066757202,0.9100000262260437,2.940000057220459,90
17:11:21:550,0.014323949813842773,-0.016454696655273438,-0.016800642013549805,-1.306481122970581,-9.494720458984375,1.5529417991638184,-4.900000095367432,0.9800000190734863,2.799999952316284,90
17:11:21:588,0.04400146007537842,0.015550613403320312,0.04973006248474121,-1.2658032178878784,-9.458827018737793,1.6319050788879395,-3.990000009536743,1.0499999523162842,2.450000047683716,90
17:11:21:630,-0.0030840635299682617,-0.04307365417480469,-0.0291292667388916,-1.3136597871780396,-9.528220176696777,1.5457634925842285,-4.130000114440918,0.9100000262260437,2.1700000762939453,90
17:11:21:670,-0.006295561790466309,0.01531219482421875,0.02072453498840332,-1.3184452056884766,-9.4660062789917,1.6007983684539795,-4.199999809265137,1.2599999904632568,1.8899999856948853,90
17:11:21:710,-0.04906439781188965,-0.02412128448486328,-0.05807638168334961,-1.373480200767517,-9.511469841003418,1.5074783563613892,-4.760000228881836,1.2599999904632568,1.9600000381469727,90
17:11:21:748,-0.02202320098876953,-0.0250396728515625,0.005223751068115234,-1.3519448041915894,-9.518648147583008,1.5720844268798828,-4.829999923706055,1.4700000286102295,2.240000009536743,90
17:11:21:790,0.02066671848297119,0.10822296142578125,0.07117807865142822,-1.3040882349014282,-9.358329772949219,1.65583336353302,-4.480000019073486,1.190000057220459,2.799999952316284,90
17:11:21:829,0.043332815170288086,0.048293113708496094,0.03205704689025879,-1.2705888748168945,-9.4061861038208,1.6247265338897705,-3.7799999713897705,1.0499999523162842,2.799999952316284,90
17:11:21:871,0.07869422435760498,-0.07430648803710938,0.016074538230895996,-1.215553879737854,-9.547362327575684,1.6127625703811646,-4.059999942779541,1.0499999523162842,2.799999952316284,90
17:11:21:908,-0.13421320915222168,-0.032645225524902344,-0.04265391826629639,-1.4620146751403809,-9.513862609863281,1.5433706045150757,-2.5199999809265137,1.0499999523162842,2.6600000858306885,90
17:11:21:950,-0.04419994354248047,-0.04525947570800781,0.0022478103637695312,-1.3830513954162598,-9.53779125213623,1.588834285736084,-4.059999942779541,0.42000001668930054,2.1700000762939453,90
17:11:21:989,-0.008560419082641602,-0.03620719909667969,0.0037124156951904297,-1.3495519161224365,-9.53779125213623,1.5912269353866577,-4.760000228881836,0.42000001668930054,2.0999999046325684,90
17:11:22:31,0.04866504669189453,-0.042365074157714844,-0.012344121932983398,-1.2801601886749268,-9.554540634155273,1.5720844268798828,-4.829999923706055,0.6299999952316284,2.5899999141693115,91
17:11:22:70,0.08296000957489014,0.08862018585205078,-0.019446611404418945,-1.2251251935958862,-9.401400566101074,1.5601203441619873,-3.0799999237060547,1.75,2.5899999141693115,91
17:11:22:110,0.08933901786804199,0.03452491760253906,0.03804194927215576,-1.196411371231079,-9.446864128112793,1.6271194219589233,-2.940000057220459,1.0499999523162842,2.5899999141693115,91
17:11:22:149,-0.07784080505371094,0.08887672424316406,-0.0901646614074707,-1.3830513954162598,-9.370293617248535,1.4763716459274292,-3.5,1.4700000286102295,2.870000123977661,91
17:11:22:190,-0.01824474334716797,-0.05906867980957031,0.01975250244140625,-1.3280165195465088,-9.533005714416504,1.5912269353866577,-2.6600000858306885,1.3300000429153442,2.450000047683716,91
17:11:22:230,0.0428318977355957,0.08100128173828125,0.027287721633911133,-1.2562319040298462,-9.372685432434082,1.6055840253829956,-3.5,0.7699999809265137,2.309999942779541,91
17:11:22:271,0.01512289047241211,-0.06728363037109375,-0.018369317054748535,-1.2801601886749268,-9.53779125213623,1.5553346872329712,-3.3600001335144043,0.5600000023841858,2.1700000762939453,91
17:11:22:309,-0.05298638343811035,0.02274322509765625,-0.05106639862060547,-1.361515998840332,-9.442078590393066,1.509871006011963,-4.269999980926514,1.1200000047683716,2.309999942779541,91
17:11:22:351,0.05523800849914551,0.054566383361816406,0.10463058948516846,-1.239482045173645,-9.396614074707031,1.6917256116867065,-4.96999979019165,1.0499999523162842,3.009999990463257,91
17:11:22:389,-0.011323213577270508,-0.06737422943115234,0.01670539379119873,-1.3088740110397339,-9.535398483276367,1.6079767942428589,-4.269999980926514,0.2800000011920929,2.799999952316284,91
17:11:22:431,0.011998295783996582,-0.08452796936035156,-0.04597771167755127,-1.2825528383255005,-9.573683738708496,1.5337992906570435,-4.059999942779541,0.21000000834465027,2.380000114440918,91
17:11:22:470,-0.06122899055480957,0.01851940155029297,-0.06549596786499023,-1.3710873126983643,-9.4660062789917,1.497907042503357,-4.409999847412109,0.49000000953674316,2.309999942779541,91
17:11:22:511,0.010358810424804688,0.026300430297851562,-0.0007117986679077148,-1.2969098091125488,-9.45164966583252,1.5625132322311401,-5.110000133514404,0.49000000953674316,2.5899999141693115,91
17:11:22:549,0.04465794563293457,0.02869701385498047,0.0472869873046875,-1.2514461278915405,-9.442078590393066,1.6223337650299072,-4.550000190734863,0.5600000023841858,3.1500000953674316,91
17:11:22:591,0.0299835205078125,0.013386726379394531,0.01677262783050537,-1.2586246728897095,-9.454042434692383,1.5960125923156738,-4.550000190734863,0.21000000834465027,3.3600001335144043,91
17:11:22:630,0.022072553634643555,0.07962226867675781,-0.015295743942260742,-1.2610174417495728,-9.367900848388672,1.5601203441619873,-6.579999923706055,0.7699999809265137,4.130000114440918,91
17:11:22:673,-0.10676884651184082,-0.2770404815673828,-0.08114981651306152,-1.4165509939193726,-9.7938232421875,1.4739787578582764,-5.949999809265137,0.42000001668930054,3.5,91
17:11:22:710,0.0007264614105224609,0.0272216796875,0.14182007312774658,-1.3088740110397339,-9.482755661010742,1.7324036359786987,-0.9100000262260437,1.4700000286102295,2.380000114440918,91
17:11:22:751,-0.06067502498626709,-0.02033710479736328,-0.04351317882537842,-1.3854442834854126,-9.535398483276367,1.5361920595169067,-3.5,0.5600000023841858,2.450000047683716,91
17:11:22:790,0.10268628597259521,0.14644241333007812,0.034102797508239746,-1.196411371231079,-9.332008361816406,1.6223337650299072,-3.7100000381469727,0.42000001668930054,2.5899999141693115,91
17:11:22:831,-0.02696371078491211,-0.08001518249511719,-0.08565902709960938,-1.3328022956848145,-9.578469276428223,1.4811571836471558,-4.409999847412109,1.190000057220459,2.870000123977661,91
17:11:22:870,0.04542803764343262,-0.025726318359375,0.032928466796875,-1.2490534782409668,-9.530611991882324,1.6079767942428589,-3.009999990463257,1.8899999856948853,2.5199999809265137,91
17:11:22:911,-0.057456254959106445,0.11341667175292969,0.03974258899688721,-1.3663017749786377,-9.363115310668945,1.6247265338897705,-3.640000104904175,1.75,3.009999990463257,91
17:11:22:950,-0.030650854110717773,-0.04326438903808594,0.0030802488327026367,-1.3471590280532837,-9.530611991882324,1.588834285736084,-3.5,1.399999976158142,3.0799999237060547,91
17:11:22:991,-0.05706322193145752,0.04961585998535156,-0.02242112159729004,-1.3878371715545654,-9.425328254699707,1.557727575302124,-3.9200000762939453,1.2599999904632568,2.799999952316284,91
17:11:23:30,0.025177001953125,-0.04644966125488281,0.012691140174865723,-1.2993026971817017,-9.533005714416504,1.5960125923156738,-4.059999942779541,1.1200000047683716,2.5199999809265137,91
17:11:23:72,-0.050686001777648926,0.02218341827392578,0.03695261478424072,-1.3878371715545654,-9.458827018737793,1.6295121908187866,-3.3600001335144043,0.9800000190734863,2.309999942779541,91
17:11:23:110,-0.04437720775604248,-0.03393840789794922,0.016162395477294922,-1.392622709274292,-9.523433685302734,1.6127625703811646,-4.199999809265137,0.9800000190734863,2.5899999141693115,91
17:11:23:152,0.008526206016540527,0.041762351989746094,0.0052727460861206055,-1.3375877141952515,-9.437292098999023,1.6031911373138428,-4.619999885559082,0.699999988079071,2.6600000858306885,91
17:11:23:190,0.016392230987548828,0.06212329864501953,-0.0015246868133544922,-1.325623631477356,-9.401400566101074,1.5960125923156738,-4.96999979019165,0.699999988079071,3.0799999237060547,91
17:11:23:232,-0.06728506088256836,-0.0039005279541015625,-0.06821870803833008,-1.4261221885681152,-9.468399047851562,1.5122638940811157,-4.900000095367432,0.21000000834465027,3.0799999237060547,91
17:11:23:271,-0.038514018058776855,-0.0012063980102539062,-0.02394688129425049,-1.4069796800613403,-9.4660062789917,1.550549030303955,-4.900000095367432,0.3499999940395355,3.009999990463257,91
17:11:23:311,0.005559682846069336,0.014348983764648438,-0.009586095809936523,-1.361515998840332,-9.446864128112793,1.5625132322311401,-5.320000171661377,0.2800000011920929,3.0799999237060547,91
17:11:23:350,0.031247377395629883,-0.05743408203125,0.03253066539764404,-1.3280165195465088,-9.533005714416504,1.6127625703811646,-5.179999828338623,0.14000000059604645,3.1500000953674316,91
17:11:23:392,0.057540178298950195,0.06125068664550781,-0.03714609146118164,-1.2873386144638062,-9.399007797241211,1.5337992906570435,-5.039999961853027,0.21000000834465027,2.940000057220459,91
17:11:23:431,0.019232511520385742,-0.04479789733886719,0.0009112358093261719,-1.3208380937576294,-9.516255378723145,1.5720844268798828,-5.53000020980835,0.3499999940395355,3.1500000953674316,91
17:11:23:472,0.007728934288024902,-0.014781951904296875,-0.03372752666473389,-1.3304094076156616,-9.489934921264648,1.529013752937317,-5.949999809265137,0.49000000953674316,3.2200000286102295,91
17:11:23:510,-0.03593039512634277,-0.07308197021484375,-0.05569601058959961,-1.3830513954162598,-9.566505432128906,1.4931212663650513,-5.809999942779541,0.9800000190734863,2.6600000858306885,91
17:11:23:552,0.009540677070617676,0.05639076232910156,0.043499112129211426,-1.3351951837539673,-9.422935485839844,1.6031911373138428,-5.110000133514404,1.2599999904632568,2.0999999046325684,91
17:11:23:590,-0.030652403831481934,0.018312454223632812,-0.03411400318145752,-1.3830513954162598,-9.456435203552246,1.5170495510101318,-8.680000305175781,1.190000057220459,1.5399999618530273,91
17:11:23:632,-0.007293581962585449,-0.10977745056152344,-0.06557643413543701,-1.361515998840332,-9.611968994140625,1.4691929817199707,-10.289999961853027,2.1700000762939453,1.6800000667572021,91
17:11:23:672,-0.030720233917236328,-0.13950634002685547,-0.1194601058959961,-1.392622709274292,-9.67657470703125,1.3854442834854126,-6.440000057220459,0.9800000190734863,1.3300000429153442,91
17:11:23:711,0.41761744022369385,0.2233905792236328,0.32939720153808594,-0.8398807048797607,-9.257830619812012,1.9166508913040161,2.0999999046325684,4.059999942779541,3.640000104904175,91
17:11:23:752,-0.150213360786438,-0.15054035186767578,-0.2093040943145752,-1.4452648162841797,-9.66939640045166,1.325623631477356,-4.550000190734863,1.8200000524520874,3.1500000953674316,91
17:11:23:791,-0.17376995086669922,0.07099342346191406,-0.08130145072937012,-1.5122638940811157,-9.430113792419434,1.4333008527755737,-1.5399999618530273,1.9600000381469727,0.21000000834465027,91
17:11:23:832,0.004553318023681641,0.10082244873046875,0.024928927421569824,-1.3328022956848145,-9.375079154968262,1.5457634925842285,-4.130000114440918,1.0499999523162842,0.5600000023841858,91
17:11:23:879,0.11466968059539795,-0.03419685363769531,-0.11022651195526123,-1.1940184831619263,-9.518648147583008,1.3830513954162598,-6.300000190734863,0.2800000011920929,1.6100000143051147,91
17:11:23:906,0.028565287590026855,-0.03118610382080078,-0.023096323013305664,-1.2729815244674683,-9.523433685302734,1.4644075632095337,-5.740000247955322,1.2599999904632568,1.399999976158142,91
17:11:23:944,-0.09774613380432129,-0.26423168182373047,0.6610844135284424,-1.423729419708252,-9.822537422180176,2.313859462738037,-9.65999984741211,-1.6800000667572021,-0.2800000011920929,91
17:11:23:984,-0.8553857803344727,-1.0479154586791992,0.33744168281555176,-2.3952155113220215,-10.868200302124023,2.0745770931243896,-45.43000030517578,-14.069999694824219,-13.930000305175781,91
17:11:24:27,-1.2585859298706055,-1.7342052459716797,0.38672327995300293,-3.1130621433258057,-11.988040924072266,2.2205395698547363,-17.989999771118164,-42.560001373291016,-34.02000045776367,92
17:11:24:65,1.1447572708129883,2.404780387878418,1.5555603504180908,-0.42352959513664246,-7.247859954833984,3.778266668319702,65.80000305175781,-61.880001068115234,-22.610000610351562,92
17:11:24:104,0.9330340623855591,0.4115610122680664,0.6778280735015869,-0.4019941985607147,-9.138189315795898,3.06999135017395,-22.81999969482422,-78.54000091552734,-16.520000457763672,92
17:11:24:143,1.08907949924469,-0.070831298828125,-0.6254348754882812,0.0263210479170084,-9.638289451599121,1.6103696823120117,-47.67000198364258,-77,-12.319999694824219,92
17:11:24:183,0.8521209955215454,-0.3974037170410156,-1.4383344650268555,0.0023928226437419653,-10.064212799072266,0.4378865361213684,-43.540000915527344,-69.0199966430664,-17.219999313354492,92
17:11:24:223,0.6012979745864868,-0.2241230010986328,-0.9228708744049072,-0.09810572117567062,-9.9469633102417,0.7226324081420898,-19.530000686645508,-60.40999984741211,-17.850000381469727,92
17:11:24:263,0.5097522735595703,-0.0759286880493164,-1.3125741481781006,-0.062213387340307236,-9.817750930786133,0.004785645287483931,-29.399999618530273,-53.970001220703125,-17.989999771118164,92
17:11:24:302,0.4805436432361603,0.4541921615600586,-1.4979957342147827,0.02871387079358101,-9.174081802368164,-0.5551348924636841,-9.730000495910645,-43.119998931884766,-15.819999694824219,92
17:11:24:342,0.6830592155456543,0.5988073348999023,-1.5257346630096436,0.4019941985607147,-8.879764556884766,-0.9643075466156006,-9.449999809265137,-31.290000915527344,-10.850000381469727,92
17:11:24:382,0.6134464144706726,0.27422046661376953,-1.2225019931793213,0.48574298620224,-9.135796546936035,-0.9667003750801086,-7.630000114440918,-17.219999313354492,-4.409999847412109,92
17:11:24:423,0.41610103845596313,0.32274627685546875,-0.33481085300445557,0.3924228847026825,-9.006584167480469,-0.1627119481563568,-0.07000000029802322,-6.510000228881836,1.399999976158142,92
17:11:24:463,0.35776621103286743,0.08974266052246094,-0.24870610237121582,0.42352959513664246,-9.21715259552002,-0.13878372311592102,-4.829999923706055,-1.2599999904632568,6.860000133514404,92
17:11:24:502,0.2172996699810028,-0.12537479400634766,0.011603519320487976,0.33738797903060913,-9.463613510131836,0.12442677468061447,-0.9100000262260437,4.269999980926514,10.149999618530273,92
17:11:24:542,0.1374688446521759,-0.2591838836669922,0.3002500534057617,0.2919243574142456,-9.66221809387207,0.48813584446907043,-2.940000057220459,7.28000020980835,12.180000305175781,92
17:11:24:583,0.09657526016235352,-0.2973165512084961,0.39716917276382446,0.2751745879650116,-9.774680137634277,0.6843472719192505,-1.75,7.840000152587891,11.480000495910645,92
17:11:24:623,0.10214558243751526,-0.2512531280517578,0.5646746158599854,0.30628129839897156,-9.791430473327637,0.9930213689804077,-2.7300000190734863,5.179999828338623,10.640000343322754,92
17:11:24:671,0.09128773212432861,-0.20674514770507812,0.4019690155982971,0.31824538111686707,-9.798608779907227,0.9308080077171326,-3.640000104904175,1.6800000667572021,9.449999809265137,92
17:11:24:707,0.13428646326065063,-0.06394004821777344,0.14354920387268066,0.39481574296951294,-9.671788215637207,0.7082754969596863,-4.269999980926514,-0.8400000333786011,8.260000228881836,92
17:11:24:754,0.1036006510257721,-0.18706512451171875,0.08803975582122803,0.3900300860404968,-9.841679573059082,0.6747759580612183,-4.760000228881836,-1.6800000667572021,7.420000076293945,92
17:11:24:787,0.038852572441101074,-0.2491931915283203,0.22165817022323608,0.3349951505661011,-9.966106414794922,0.8638089299201965,-3.7799999713897705,-3.3600001335144043,5.25,92
17:11:24:838,0.05405318737030029,-0.2089252471923828,-0.000699460506439209,0.36370906233787537,-9.978070259094238,0.6412764191627502,-5.809999942779541,-3.990000009536743,2.870000123977661,92
17:11:24:881,0.10067027807235718,-0.08865547180175781,-0.16135722398757935,0.43549373745918274,-9.879963874816895,0.44027936458587646,-6.159999847412109,-2.0999999046325684,0.7699999809265137,92
17:11:24:916,0.14370673894882202,0.005644798278808594,0.010655045509338379,0.5144568681716919,-9.784252166748047,0.6149553656578064,-3.2200000286102295,-0.14000000059604645,0.2800000011920929,92
17:11:24:952,0.10156556963920593,0.019830703735351562,-0.0029615163803100586,0.4977070987224579,-9.765109062194824,0.6005984544754028,-3.2899999618530273,1.8200000524520874,-0.5600000023841858,92
17:11:24:993,0.02573898434638977,-0.1564188003540039,-0.16508114337921143,0.42831525206565857,-9.980463027954102,0.397208571434021,-6.369999885559082,3.5,-1.4700000286102295,92
17:11:25:32,-0.10192134976387024,-0.4007883071899414,-0.10526525974273682,0.2751745879650116,-10.325029373168945,0.430708110332489,-6.579999923706055,6.440000057220459,-6.159999847412109,89
17:11:25:73,0.008433043956756592,-0.32254600524902344,0.04021453857421875,0.38763725757598877,-10.327423095703125,0.5862415432929993,-2.380000114440918,6.929999828338623,-12.529999732971191,89
17:11:25:112,-0.0640811026096344,-0.2810068130493164,0.04748570919036865,0.2991028428077698,-10.356135368347168,0.605384111404419,-9.800000190734863,7.349999904632568,-20.229999542236328,89
17:11:25:153,0.390928715467453,0.1255035400390625,-0.03283894062042236,0.851844847202301,-9.918249130249023,0.5168496966362,-10.779999732971191,5.25,-27.649999618530273,89
17:11:25:192,0.41994142532348633,0.3971118927001953,-0.18324032425880432,0.9858429431915283,-9.547362327575684,0.3206382095813751,-21.350000381469727,5.809999942779541,-31.079999923706055,89
17:11:25:233,0.5962923169136047,-0.44610023498535156,-0.08533596992492676,1.3112668991088867,-10.50209903717041,0.397208571434021,-8.329999923706055,1.5399999618530273,-36.68000030517578,89
17:11:25:274,0.5076618790626526,0.4605083465576172,0.2916117310523987,1.3495519161224365,-9.480363845825195,0.8470591902732849,-0.7699999809265137,-1.6100000143051147,-38.220001220703125,89
17:11:25:313,0.49227118492126465,0.5464334487915039,-0.05767783522605896,1.4572290182113647,-9.257830619812012,0.4833501875400543,-10.989999771118164,-4.550000190734863,-35.77000045776367,89
17:11:25:354,0.552700400352478,0.39694690704345703,-0.2969101071357727,1.65583336353302,-9.308080673217773,0.1698903888463974,-6.720000267028809,-3.640000104904175,-33.38999938964844,89
17:11:25:409,0.7388702630996704,0.2141885757446289,-0.34281226992607117,2.0267207622528076,-9.437292098999023,0.038285162299871445,-11.6899995803833,-1.6800000667572021,-32.40999984741211,89
17:11:25:434,0.9337484836578369,0.198150634765625,-0.1842796951532364,2.455036163330078,-9.403792381286621,0.15074782073497772,-15.609999656677246,2.799999952316284,-33.040000915527344,89
17:11:25:476,0.999680757522583,0.5585994720458984,-0.1742233783006668,2.770888566970825,-8.903693199157715,0.11724831163883209,-22.540000915527344,4.269999980926514,-29.329999923706055,89
17:11:25:514,1.031369686126709,0.25545310974121094,-0.4054605960845947,3.060420036315918,-9.142975807189941,-0.2153540551662445,-22.1200008392334,9.65999984741211,-26.950000762939453,89
17:11:25:553,0.9667506217956543,0.5374441146850586,-0.06594361364841461,3.2374887466430664,-8.72662353515625,0.10767702758312225,-1.9600000381469727,9.170000076293945,-23.8700008392334,89
17:11:25:592,0.6796021461486816,0.36678504943847656,-0.1082683801651001,3.1202406883239746,-8.805586814880371,0.038285162299871445,-8.1899995803833,9.029999732971191,-19.600000381469727,89
17:11:25:633,0.5168821811676025,0.25322914123535156,-0.07321490347385406,3.0867412090301514,-8.855835914611816,0.05503492057323456,3.2899999618530273,5.389999866485596,-15.119999885559082,89
17:11:25:675,0.3350212574005127,0.20258331298828125,0.02182692289352417,2.988635540008545,-8.855835914611816,0.15553347766399384,2.450000047683716,4.480000019073486,-10.850000381469727,89
17:11:25:713,0.29864501953125,0.09315299987792969,-0.09930820763111115,3.0269205570220947,-8.941977500915527,0.009571290574967861,-2.309999942779541,2.1700000762939453,-7,89
17:11:25:753,0.3327145576477051,0.08409309387207031,0.025837630033493042,3.1441688537597656,-8.930014610290527,0.14117653667926788,-3.7799999713897705,3.0799999237060547,-4.829999923706055,89
17:11:25:793,0.5073685646057129,0.09981727600097656,0.20635312795639038,3.445664882659912,-8.889336585998535,0.3732803165912628,-7.490000247955322,2.0299999713897705,-3.990000009536743,89
17:11:25:833,0.7523753643035889,0.3918781280517578,0.1746538132429123,3.87876558303833,-8.499305725097656,0.3852444589138031,-22.96000099182129,2.380000114440918,-2.240000009536743,89
17:11:25:875,1.3695178031921387,0.3058452606201172,0.9054262638092041,4.838287353515625,-8.50887680053711,1.3423734903335571,-82.11000061035156,9.3100004196167,3.3600001335144043,89
17:11:25:912,1.08221435546875,0.18342018127441406,-0.23853081464767456,4.821537494659424,-8.585447311401367,0.13878372311592102,-133.35000610351562,13.930000305175781,7.420000076293945,89
17:11:25:962,0.33935046195983887,-0.48305416107177734,-3.2019524574279785,4.163511276245117,-9.372685432434082,-3.6251261234283447,-69.72000122070312,18.549999237060547,2.0299999713897705,89
17:11:26:30,-0.25876903533935547,0.3160886764526367,-3.01332688331604,3.500699520111084,-8.49452018737793,-4.1898322105407715,22.049999237060547,37.17000198364258,5.460000038146973,89
17:11:26:34,-1.0550315380096436,1.8149056434631348,-0.5078891515731812,2.4406790733337402,-6.541977405548096,-1.8113667964935303,-1.1200000047683716,54.040000915527344,17.43000030517578,89
17:11:26:68,-0.9569664001464844,-1.0634098052978516,-1.3347266912460327,2.2995026111602783,-9.686145782470703,-2.971885919570923,-76.51000213623047,38.92000198364258,15.190000534057617,89
17:11:26:110,-0.26212310791015625,0.529451847076416,-0.8361560106277466,2.9288151264190674,-7.960920810699463,-2.682354211807251,-27.440000534057617,48.58000183105469,18.6200008392334,89
17:11:26:150,-0.7380340099334717,0.8389554023742676,-0.6459536552429199,2.2683956623077393,-7.441678524017334,-2.6536402702331543,-42.77000045776367,54.529998779296875,30.8700008392334,89
17:11:26:192,0.10062003135681152,0.9659595489501953,-0.23728132247924805,3.13220477104187,-7.073184013366699,-2.304288148880005,-60.83000183105469,57.119998931884766,56.560001373291016,89
17:11:26:233,-0.49760985374450684,-0.002506256103515625,-0.37167954444885254,2.4095723628997803,-8.042276382446289,-2.531606435775757,-84.55999755859375,54.31999969482422,59.43000030517578,89
17:11:26:275,-0.23920464515686035,-0.7102813720703125,0.5487585067749023,2.6081764698028564,-8.927621841430664,-1.4739787578582764,-84,49,60.060001373291016,89
17:11:26:313,-0.6967276334762573,-2.1704587936401367,0.3298940658569336,1.9764715433120728,-10.930414199829102,-1.6103696823120117,-72.23999786376953,29.329999923706055,43.75,89
17:11:26:354,-0.02138972282409668,-1.3898859024047852,-0.16296422481536865,2.6464619636535645,-10.497312545776367,-2.1439690589904785,-35.90999984741211,20.09000015258789,37.79999923706055,89
17:11:26:393,-0.4554769992828369,-0.8630552291870117,-0.5897932052612305,2.0985054969787598,-10.186245918273926,-2.7182462215423584,1.2599999904632568,16.799999237060547,33.599998474121094,89
17:11:26:435,-0.20932674407958984,-0.42244911193847656,-0.6460320949554443,2.2923240661621094,-9.851251602172852,-2.935993194580078,6.300000190734863,22.610000610351562,31.71000099182129,89
17:11:26:474,-0.42205750942230225,-0.16184711456298828,-0.2947719097137451,1.9740787744522095,-9.631111145019531,-2.65842604637146,-11.6899995803833,27.649999618530273,28.700000762939453,89
17:11:26:515,-0.46972978115081787,-0.3591880798339844,-0.48467111587524414,1.8089739084243774,-9.918249130249023,-2.9694931507110596,-9.869999885559082,27.229999542236328,24.71000099182129,89
17:11:26:553,-0.4523540735244751,-0.027011871337890625,-0.5810768604278564,1.7132610082626343,-9.592825889587402,-3.211168050765991,11.829999923706055,26.739999771118164,19.600000381469727,89
17:11:26:593,-0.4939671754837036,0.31912803649902344,-0.32320642471313477,1.5481561422348022,-9.166903495788574,-3.0340991020202637,12.25,25.059999465942383,15.190000534057617,89
17:11:26:638,-0.33008885383605957,0.5290412902832031,-0.21645140647888184,1.6295121908187866,-8.824729919433594,-2.981456995010376,-6.300000190734863,21.979999542236328,12.039999961853027,89
17:11:26:674,-0.32915592193603516,0.20883655548095703,-0.21527481079101562,1.5481561422348022,-9.09272575378418,-3.0340991020202637,-8.609999656677246,21.559999465942383,12.25,89
17:11:26:715,-0.34563779830932617,0.39678001403808594,-0.3138749599456787,1.4452648162841797,-8.805586814880371,-3.211168050765991,2.940000057220459,20.649999618530273,14.210000038146973,89
17:11:26:753,-0.5253638029098511,-0.05394172668457031,-0.08073091506958008,1.1341978311538696,-9.269794464111328,-2.998206615447998,0.5600000023841858,20.579999923706055,15.609999656677246,89
17:11:26:795,-0.510261058807373,-0.11589622497558594,-0.03395676612854004,1.0217353105545044,-9.360722541809082,-2.9599215984344482,-4.059999942779541,15.399999618530273,14.210000038146973,89
17:11:26:834,-0.4139516353607178,-0.1463155746459961,0.04557657241821289,1.0145567655563354,-9.42772102355957,-2.8689942359924316,-8.1899995803833,12.529999732971191,11.829999923706055,89
17:11:26:876,-0.2909618616104126,-0.027082443237304688,0.28914332389831543,1.0648061037063599,-9.315258979797363,-2.5531415939331055,-7.070000171661377,9.449999809265137,11.270000457763672,89
17:11:26:914,-0.21362686157226562,-0.015923500061035156,0.23897171020507812,1.0887343883514404,-9.308080673217773,-2.5435702800750732,-1.2599999904632568,5.880000114440918,11.270000457763672,89
17:11:26:955,-0.1785585880279541,-0.07399463653564453,0.36728906631469727,1.0791629552841187,-9.384650230407715,-2.3234307765960693,-0.7699999809265137,3.569999933242798,11.130000114440918,89
17:11:26:995,0.06772160530090332,-0.1836223602294922,-0.05456352233886719,1.3423734903335571,-9.540184020996094,-2.7589242458343506,-1.190000057220459,-0.7699999809265137,10.850000381469727,89
17:11:27:35,-0.005164623260498047,-0.25409603118896484,0.03674769401550293,1.2681961059570312,-9.674181938171387,-2.65842604637146,3.3600001335144043,0.07000000029802322,8.470000267028809,88
17:11:27:75,-0.030931472778320312,-0.2587900161743164,-0.1294851303100586,1.234696388244629,-9.743573188781738,-2.857030153274536,0.699999988079071,-1.5399999618530273,5.599999904632568,88
17:11:27:115,0.04416823387145996,-0.09600543975830078,-0.17441582679748535,1.3208380937576294,-9.604789733886719,-2.9455647468566895,2.309999942779541,-1.8200000524520874,0.7699999809265137,88
17:11:27:155,0.04299163818359375,0.14716339111328125,-0.1548466682434082,1.3304094076156616,-9.324830055236816,-2.964707374572754,5.599999904632568,-2.240000009536743,-4.480000019073486,88
17:11:27:195,0.03822195529937744,0.32447147369384766,-0.1391913890838623,1.3351951837539673,-9.066404342651367,-2.9838497638702393,0.14000000059604645,-4.130000114440918,-9.449999809265137,88
17:11:27:235,0.021006226539611816,0.4012317657470703,0.04178738594055176,1.3232309818267822,-8.889336585998535,-2.792424201965332,-2.940000057220459,-5.25,-11.34000015258789,88
17:11:27:276,-0.05593693256378174,-0.1231222152709961,0.029601573944091797,1.2323036193847656,-9.44447135925293,-2.7972097396850586,-4.130000114440918,-6.720000267028809,-9.100000381469727,88
17:11:27:314,-0.2840317487716675,-0.15975379943847656,0.15385103225708008,0.9332008361816406,-9.521041870117188,-2.63449764251709,6.650000095367432,-5.53000020980835,-5.880000114440918,88
17:11:27:355,-0.38419461250305176,0.09808063507080078,0.2915356159210205,0.7369893789291382,-9.238687515258789,-2.423929214477539,7.28000020980835,-5.949999809265137,-7.559999942779541,88
17:11:27:393,-0.16570067405700684,0.09569263458251953,0.23897123336791992,0.9140582084655762,-9.21715259552002,-2.416750907897949,7.980000019073486,-11.829999923706055,-11.480000495910645,88
17:11:27:435,0.2885763645172119,0.199066162109375,0.17777705192565918,1.4404792785644531,-9.06401252746582,-2.4335007667541504,3.640000104904175,-18.760000228881836,-10.569999694824219,88
17:11:27:476,0.1983187198638916,0.00994110107421875,0.2532486915588379,1.3998013734817505,-9.250652313232422,-2.2947168350219727,1.399999976158142,-20.3700008392334,-7.909999847412109,88
17:11:27:514,0.06868481636047363,-0.19495868682861328,0.19494199752807617,1.2873386144638062,-9.504291534423828,-2.304288148880005,2.0299999713897705,-22.68000030517578,-6.090000152587891,88
17:11:27:556,0.024319767951965332,-0.14256763458251953,0.21912431716918945,1.2490534782409668,-9.487542152404785,-2.225324869155884,8.609999656677246,-23.309999465942383,-3.8499999046325684,88
17:11:27:595,-0.10688531398773193,-0.2384805679321289,0.08150053024291992,1.0911270380020142,-9.643074989318848,-2.342573404312134,15.539999961853027,-28.700000762939453,-2.450000047683716,88
17:11:27:636,0.3394571542739868,0.764430046081543,0.26619768142700195,1.6223337650299072,-8.449056625366211,-2.091326951980591,13.300000190734863,-31.079999923706055,-5.599999904632568,88
17:11:27:675,0.9913265705108643,0.5388021469116211,-0.1986074447631836,2.5220348834991455,-8.539983749389648,-2.6057839393615723,-9.9399995803833,-33.599998474121094,-7.28000020980835,88
17:11:27:715,0.6131212711334229,0.1151885986328125,-0.21248507499694824,2.297109842300415,-8.934800148010254,-2.6727826595306396,-15.890000343322754,-27.510000228881836,-6.159999847412109,88
17:11:27:756,0.30098533630371094,-0.07056045532226562,-0.16424560546875,2.060220241546631,-9.138189315795898,-2.665604591369629,-28.770000457763672,-25.059999465942383,-10.010000228881836,88
17:11:27:795,-0.23203349113464355,-0.7723817825317383,-0.2787940502166748,1.4691929817199707,-10.033105850219727,-2.849851608276367,-17.010000228881836,-18.690000534057617,-11.760000228881836,88
17:11:27:836,-0.43065178394317627,-0.43796443939208984,-0.28046321868896484,1.1629117727279663,-9.80817985534668,-2.9216365814208984,-0.699999988079071,-20.299999237060547,-17.149999618530273,88
17:11:27:877,-0.17989516258239746,-0.04791831970214844,-0.13248586654663086,1.368694543838501,-9.430113792419434,-2.8067808151245117,-6.929999828338623,-21.420000076293945,-18.899999618530273,88
17:11:27:916,-0.02523207664489746,-0.1263904571533203,-0.10215997695922852,1.5170495510101318,-9.540184020996094,-2.801995038986206,-2.309999942779541,-24.290000915527344,-17.920000076293945,88
17:11:27:955,-0.1178128719329834,0.13625526428222656,-0.0683283805847168,1.3950155973434448,-9.243474006652832,-2.785245418548584,5.670000076293945,-29.96000099182129,-14.279999732971191,88
17:11:27:996,-0.3239612579345703,0.29468727111816406,-0.1293189525604248,1.1078768968582153,-9.011369705200195,-2.878565788269043,2.5899999141693115,-38.08000183105469,-11.40999984741211,88
17:11:28:37,-0.12134242057800293,0.09026527404785156,-0.07856965065002441,1.2801601886749268,-9.193224906921387,-2.847458839416504,-6.720000267028809,-47.18000030517578,-7.630000114440918,88
17:11:28:71,-0.1257878541946411,0.2655525207519531,-0.0149993896484375,1.2442678213119507,-8.951549530029297,-2.7876384258270264,-0.14000000059604645,-51.72999954223633,-5.670000076293945,88
17:11:28:116,0.10993814468383789,-0.06129646301269531,-0.10196948051452637,1.5074783563613892,-9.293723106384277,-2.9001009464263916,5.740000247955322,-56.13999938964844,-3.7799999713897705,88
17:11:28:155,0.12049269676208496,0.15387439727783203,-0.14666032791137695,1.5481561422348022,-9.040083885192871,-2.981456995010376,14.420000076293945,-59.290000915527344,-0.6299999952316284,88
17:11:28:196,0.18445003032684326,-0.04535484313964844,0.13726806640625,1.6582260131835938,-9.250652313232422,-2.6632115840911865,17.43000030517578,-65.37999725341797,1.1200000047683716,88
17:11:28:235,0.3428143262863159,-0.1377391815185547,0.34526824951171875,1.9022939205169678,-9.377471923828125,-2.368894338607788,21.489999771118164,-68.38999938964844,1.5399999618530273,88
17:11:28:276,0.2034238576889038,-0.08147716522216797,0.5078396797180176,1.813759446144104,-9.34157943725586,-2.0793628692626953,24.219999313354492,-66.77999877929688,0.5600000023841858,88
17:11:28:316,0.08999752998352051,-0.2527790069580078,0.5804692506790161,1.722832441329956,-9.57607650756836,-1.8616160154342651,19.25,-63.70000076293945,-2.799999952316284,88
17:11:28:355,-0.021800756454467773,-0.20796585083007812,0.6960005760192871,1.6055840253829956,-9.58325481414795,-1.5720844268798828,18.6200008392334,-57.470001220703125,-7.210000038146973,88
17:11:28:396,-0.11506772041320801,-0.1261730194091797,0.491715669631958,1.4835500717163086,-9.533005714416504,-1.6534404754638672,15.260000228881836,-54.459999084472656,-11.829999923706055,88
17:11:28:436,-0.0652545690536499,0.05411720275878906,0.5924555063247681,1.5170495510101318,-9.339186668395996,-1.4045867919921875,17.56999969482422,-52.220001220703125,-16.030000686645508,88
17:11:28:477,0.08945143222808838,0.10837841033935547,0.40122246742248535,1.6941183805465698,-9.257830619812012,-1.495514154434204,16.940000534057617,-52.150001525878906,-18.829999923706055,88
17:11:28:515,0.13856029510498047,0.3355560302734375,0.1640087366104126,1.777867317199707,-8.94676399230957,-1.6917256116867065,16.450000762939453,-51.310001373291016,-18.479999542236328,88
17:11:28:556,0.23336076736450195,0.3794727325439453,0.11397862434387207,1.931007981300354,-8.807979583740234,-1.7132610082626343,8.399999618530273,-48.790000915527344,-15.680000305175781,88
17:11:28:595,0.0565190315246582,0.21935081481933594,0.08161163330078125,1.7682960033416748,-8.913264274597168,-1.7252250909805298,-2.0299999713897705,-44.45000076293945,-12.600000381469727,88
17:11:28:637,0.1753847599029541,-0.054229736328125,0.26054370403289795,1.931007981300354,-9.20040225982666,-1.4811571836471558,-2.0299999713897705,-40.25,-9.3100004196167,88
17:11:28:676,0.1077653169631958,-0.01275634765625,0.42857468128204346,1.8903299570083618,-9.162117958068848,-1.2059825658798218,11.0600004196167,-32.7599983215332,-6.300000190734863,88
17:11:28:717,0.29486632347106934,-0.06380462646484375,0.4251728057861328,2.1511476039886475,-9.229117393493652,-1.1030912399291992,7.210000038146973,-27.09000015258789,-3.430000066757202,88
17:11:28:756,0.010010480880737305,-0.49706554412841797,0.4033087491989136,1.868794322013855,-9.78664493560791,-1.0241280794143677,-5.039999961853027,-19.739999771118164,2.6600000858306885,88
17:11:28:797,-0.2255309820175171,-0.2636547088623047,0.43175965547561646,1.576870083808899,-9.619147300720215,-0.8877372145652771,-2.450000047683716,-13.789999961853027,1.4700000286102295,88
17:11:28:836,-0.04259824752807617,-0.11520957946777344,0.30520832538604736,1.7491532564163208,-9.499505043029785,-0.9379864931106567,1.8200000524520874,-10.569999694824219,-0.5600000023841858,88
17:11:28:877,0.00037801265716552734,-0.15533924102783203,-0.22865509986877441,1.7922240495681763,-9.578469276428223,-1.529013752937317,24.780000686645508,-12.319999694824219,3.009999990463257,88
17:11:28:916,-0.03415417671203613,0.3198375701904297,-0.5466330051422119,1.7491532564163208,-9.023333549499512,-1.9836499691009521,29.469999313354492,-15.819999694824219,5.670000076293945,88
17:11:28:957,-0.06369423866271973,0.27118396759033203,-0.7033882141113281,1.703689694404602,-9.004191398620605,-2.3162522315979004,16.170000076293945,-20.15999984741211,10.850000381469727,88
17:11:28:993,-0.13326847553253174,0.11740589141845703,-0.9742761850357056,1.6007983684539795,-9.128618240356445,-2.830709218978882,6.720000267028809,-25.059999465942383,14.489999771118164,88
17:11:29:31,-0.20615613460540771,0.09966754913330078,-0.7736783027648926,1.4763716459274292,-9.121439933776855,-2.823530912399292,4.269999980926514,-26.46000099182129,15.050000190734863,90
17:11:29:70,-0.38123619556427,-0.10977745056152344,-0.7127411365509033,1.2059825658798218,-9.358329772949219,-2.940778970718384,4.409999847412109,-28.700000762939453,12.460000038146973,90
17:11:29:110,-0.3968733549118042,0.07871818542480469,-0.5797643661499023,1.0911270380020142,-9.150154113769531,-2.9527432918548584,2.240000009536743,-31.56999969482422,7.769999980926514,90
17:11:29:153,-0.30218446254730225,0.2658863067626953,-0.37192702293395996,1.1102697849273682,-8.896513938903809,-2.837887763977051,-13.859999656677246,-32.7599983215332,4.480000019073486,90
17:11:29:193,-0.20346248149871826,0.06913948059082031,-0.35496950149536133,1.1581261157989502,-9.075976371765137,-2.909672498703003,-31.56999969482422,-34.439998626708984,3.7799999713897705,90
17:11:29:237,-0.14745593070983887,-0.25862693786621094,-0.17677712440490723,1.1772687435150146,-9.468399047851562,-2.775674343109131,-25.829999923706055,-34.02000045776367,4.409999847412109,90
17:11:29:277,-0.010766267776489258,-0.13798809051513672,-0.35773277282714844,1.3112668991088867,-9.382257461547852,-3.046063184738159,-19.18000030517578,-32.7599983215332,6.369999885559082,90
17:11:29:317,-0.05264103412628174,-0.4626140594482422,-0.6422383785247803,1.2562319040298462,-9.822537422180176,-3.4911282062530518,-23.239999771118164,-29.540000915527344,10.850000381469727,90
17:11:29:363,-0.2009962797164917,-0.6246871948242188,-0.36065030097961426,1.057627558708191,-10.140782356262207,-3.2997026443481445,-7.980000019073486,-25.200000762939453,9.520000457763672,90
17:11:29:397,-0.2316245436668396,-0.27195262908935547,-0.045409440994262695,0.9690931439399719,-9.856036186218262,-2.995814085006714,2.940000057220459,-22.399999618530273,5.110000133514404,90
17:11:29:438,-0.18912816047668457,-0.07207870483398438,0.17232656478881836,0.9643075466156006,-9.674181938171387,-2.7349963188171387,-2.940000057220459,-20.299999237060547,4.130000114440918,90
17:11:29:477,-0.05750393867492676,0.2811603546142578,0.33502984046936035,1.0815558433532715,-9.250652313232422,-2.4885356426239014,-7.769999980926514,-18.549999237060547,4.199999809265137,90
17:11:29:516,-0.1455446481704712,-0.11006736755371094,0.30630922317504883,0.9571290016174316,-9.66939640045166,-2.4406790733337402,-8.1899995803833,-13.720000267028809,7.699999809265137,90
17:11:29:558,-0.005408763885498047,0.24311256408691406,0.3752169609069824,1.0959126949310303,-9.255437850952148,-2.2779672145843506,-1.399999976158142,-8.470000267028809,9.3100004196167,90
17:11:29:596,-0.09812569618225098,0.06240653991699219,0.14511871337890625,0.9786643981933594,-9.42054271697998,-2.4717857837677,-3.7100000381469727,0.5600000023841858,11.6899995803833,90
17:11:29:640,-0.13018548488616943,-0.06492996215820312,0.10843801498413086,0.9140582084655762,-9.564111709594727,-2.4813570976257324,-3.0799999237060547,9.100000381469727,14.980000495910645,90
17:11:29:677,-0.16923308372497559,-0.3563117980957031,-0.005133867263793945,0.8327022790908813,-9.944571495056152,-2.596212387084961,5.599999904632568,17.850000381469727,17.360000610351562,90
17:11:29:717,-0.4110396206378937,-0.21996498107910156,-0.02324986457824707,0.48813584446907043,-9.863215446472168,-2.620140790939331,19.040000915527344,25.549999237060547,17.079999923706055,90
17:11:29:758,-0.15271997451782227,-0.12428665161132812,0.07519888877868652,0.7082754969596863,-9.798608779907227,-2.502892255783081,18.549999237060547,31.639999389648438,14.699999809265137,90
17:11:29:798,-0.026463031768798828,-0.23725509643554688,0.09461569786071777,0.82791668176651,-9.970890998840332,-2.4598214626312256,7.559999942779541,38.36000061035156,13.930000305175781,90
17:11:29:837,-0.017341971397399902,-0.06537818908691406,0.08143496513366699,0.8327022790908813,-9.81535816192627,-2.452643394470215,19.670000076293945,43.75,9.520000457763672,90
17:11:29:880,0.15075266361236572,0.17549419403076172,0.18191766738891602,1.038485050201416,-9.530611991882324,-2.3066811561584473,34.790000915527344,52.779998779296875,5.670000076293945,90
17:11:29:917,0.30819934606552124,-0.3841123580932617,0.2852749824523926,1.2729815244674683,-10.186245918273926,-2.132004976272583,49.349998474121094,64.88999938964844,-1.4700000286102295,90
