time,ax,ay,az,ax_g,ay_g,az_g,rot_x,rot_y,rot_,heart
17:11:40:156,,,,-4.206582069396973,3.1034913063049316,7.846065521240234,-45.92000198364258,40.38999938964844,16.940000534057617,76
17:11:40:177,-2.6922125816345215,1.986234426498413,5.021481990814209,-4.206582069396973,3.1034913063049316,7.846065521240234,10.5,0.42000001668930054,-0.8400000333786011,76
17:11:40:217,-2.029343366622925,1.6961854696273804,3.982728958129883,-4.051048755645752,3.2374887466430664,7.802994728088379,-10.850000381469727,-2.5199999809265137,0.42000001668930054,76
17:11:40:258,-1.717273235321045,1.5636883974075317,3.412065029144287,-4.168296813964844,3.4959137439727783,8.085347175598145,13.510000228881836,3.3600001335144043,-3.0799999237060547,76
17:11:40:301,-1.2513060569763184,1.134181022644043,2.633939266204834,-4.015156269073486,3.34995174407959,7.9657063484191895,-9.59000015258789,-0.7699999809265137,-3.0799999237060547,76
17:11:40:342,-1.1599280834197998,0.7580325603485107,2.0631232261657715,-4.2137603759765625,3.16331148147583,7.910671234130859,11.40999984741211,4.269999980926514,-1.9600000381469727,76
17:11:40:379,-0.8609437942504883,1.0294771194458008,1.8266100883483887,-4.130012035369873,3.6921253204345703,8.130810737609863,-4.409999847412109,-0.5600000023841858,-0.2800000011920929,76
17:11:40:421,-0.8533809185028076,0.2990751266479492,1.1377787590026855,-4.335794448852539,3.036492109298706,7.726424217224121,1.75,2.380000114440918,-0.5600000023841858,76
17:11:40:462,-0.5199930667877197,0.7407956123352051,1.2394757270812988,-4.132404804229736,3.6634113788604736,8.13798999786377,1.75,0.9800000190734863,-0.5600000023841858,76
17:11:40:502,-0.5327639579772949,0.09301519393920898,0.7810120582580566,-4.278366565704346,3.0388848781585693,7.874779224395752,-3.990000009536743,0.9800000190734863,-0.42000001668930054,76
17:11:40:540,-0.42812538146972656,0.5357480049133301,0.7166938781738281,-4.280759334564209,3.6155548095703125,7.9896345138549805,9.800000190734863,1.8200000524520874,-1.0499999523162842,76
17:11:40:579,-0.248701810836792,0.1299741268157959,0.4183006286621094,-4.163511276245117,3.242274522781372,7.795816421508789,-9.869999885559082,-1.0499999523162842,0.49000000953674316,76
17:11:40:621,-0.3080744743347168,0.15183591842651367,0.31166934967041016,-4.299902439117432,3.3020951747894287,7.767102241516113,14.140000343322754,3.2200000286102295,-1.8200000524520874,76
17:11:40:659,-0.20625972747802734,0.23058128356933594,0.32207727432250977,-4.249652862548828,3.438485860824585,7.858029365539551,-7.210000038146973,1.6100000143051147,-0.9100000262260437,76
17:11:40:700,-0.21286439895629883,0.012181997299194336,0.3533754348754883,-4.309473514556885,3.2231321334838867,7.977671146392822,4.269999980926514,1.3300000429153442,-0.9100000262260437,76
17:11:40:740,-0.05735015869140625,0.30454134941101074,0.2405862808227539,-4.168296813964844,3.5916268825531006,7.925028324127197,-8.680000305175781,-0.7699999809265137,0.6299999952316284,76
17:11:40:784,-0.1358499526977539,-0.17176103591918945,0.08527088165283203,-4.280759334564209,3.0723841190338135,7.791030406951904,-0.07000000029802322,0.42000001668930054,-0.5600000023841858,76
17:11:40:824,-0.03019571304321289,0.23204302787780762,0.26155662536621094,-4.182653903961182,3.5341989994049072,8.032705307006836,-0.21000000834465027,0.699999988079071,-0.7699999809265137,76
17:11:40:873,-0.20409679412841797,-0.07661890983581543,0.13076114654541016,-4.407578945159912,3.2063822746276855,7.934599876403809,-0.9100000262260437,1.2599999904632568,0.699999988079071,76
17:11:40:918,-0.03502225875854492,0.0784456729888916,0.06632375717163086,-4.247260093688965,3.38105845451355,7.886743545532227,-3.3600001335144043,0.699999988079071,-0.21000000834465027,76
17:11:40:941,-0.01844644546508789,0.026385784149169922,0.1659998893737793,-4.23529577255249,3.335594892501831,8.02791976928711,0.42000001668930054,-0.14000000059604645,0.2800000011920929,76
17:11:40:986,-0.009015083312988281,0.026851415634155273,0.016030311584472656,-4.228117942810059,3.3427734375,7.8819580078125,-1.3300000429153442,0.21000000834465027,1.2599999904632568,76
17:11:41:27,0.010016441345214844,-0.0665745735168457,-0.008233070373535156,-4.206582069396973,3.232703685760498,7.855636119842529,-1.399999976158142,0.6299999952316284,-0.21000000834465027,76
17:11:41:66,-0.07429981231689453,0.040538787841796875,0.10252666473388672,-4.309473514556885,3.34995174407959,7.992027282714844,0.9100000262260437,-0.07000000029802322,1.0499999523162842,76
17:11:41:108,0.019044876098632812,-0.08242464065551758,0.0379939079284668,-4.211367607116699,3.2063822746276855,7.93699312210083,-0.5600000023841858,0.6299999952316284,-0.7699999809265137,76
17:11:41:146,-0.06707763671875,0.07571554183959961,0.0035948753356933594,-4.3142595291137695,3.383451223373413,7.9034929275512695,1.5399999618530273,0.14000000059604645,1.0499999523162842,76
17:11:41:188,0.06502246856689453,0.020372867584228516,0.060303688049316406,-4.1659040451049805,3.3332018852233887,7.975277900695801,2.380000114440918,1.1200000047683716,-1.0499999523162842,76
17:11:41:227,-0.03412342071533203,0.02204108238220215,-0.0264129638671875,-4.273581027984619,3.3403804302215576,7.8819580078125,-0.8400000333786011,0.5600000023841858,0.07000000029802322,76
17:11:41:267,-0.06366968154907227,-0.05128049850463867,0.05926847457885742,-4.319044589996338,3.2542388439178467,7.982456684112549,5.320000171661377,0.9100000262260437,-0.3499999940395355,76
17:11:41:307,0.025634288787841797,0.0030035972595214844,-0.11338281631469727,-4.223331928253174,3.3092737197875977,7.781459331512451,-3.640000104904175,-0.5600000023841858,0.21000000834465027,76
17:11:41:348,-0.010120868682861328,-0.010996818542480469,0.08731937408447266,-4.261617183685303,3.2925240993499756,8.00399112701416,5.740000247955322,1.2599999904632568,-0.2800000011920929,76
17:11:41:386,-0.006182670593261719,0.11562919616699219,0.00859975814819336,-4.2592244148254395,3.4480574131011963,7.927421569824219,-1.9600000381469727,0.21000000834465027,0.3499999940395355,76
17:11:41:428,-0.02217388153076172,-0.16017866134643555,-0.23048830032348633,-4.280759334564209,3.13220477104187,7.630711555480957,3.2200000286102295,-0.2800000011920929,-0.14000000059604645,76
17:11:41:466,0.04925966262817383,0.2642800807952881,0.14294719696044922,-4.1970109939575195,3.6227335929870605,8.039883613586426,4.619999885559082,0.6299999952316284,0.21000000834465027,76
17:11:41:508,-0.008448600769042969,-0.3379683494567871,-0.21106576919555664,-4.256831645965576,2.935993194580078,7.63310432434082,-3.7100000381469727,-0.14000000059604645,-1.0499999523162842,76
17:11:41:546,0.027698040008544922,0.38047313690185547,0.18911409378051758,-4.2137603759765625,3.7495529651641846,8.080562591552734,9.730000495910645,1.8899999856948853,-1.3300000429153442,76
17:11:41:588,-0.06972599029541016,-0.23735642433166504,-0.16264820098876953,-4.328616142272949,3.0723841190338135,7.688138484954834,-10.220000267028809,-2.0999999046325684,0.9800000190734863,76
17:11:41:628,-0.04812335968017578,0.04939699172973633,0.06130790710449219,-4.319044589996338,3.3714869022369385,7.927421569824219,13.09000015258789,2.1700000762939453,-1.8200000524520874,76
17:11:41:667,-0.009785175323486328,0.20605826377868652,-0.06389522552490234,-4.2831525802612305,3.579662799835205,7.786244869232178,-7.699999809265137,-0.5600000023841858,-0.21000000834465027,76
17:11:41:708,-0.011656761169433594,-0.11272072792053223,-0.01665973663330078,-4.287938117980957,3.232703685760498,7.829315185546875,10.5,2.240000009536743,-2.0299999713897705,76
17:11:41:747,-0.045696258544921875,0.332874059677124,0.09769964218139648,-4.333401679992676,3.76151704788208,7.968099594116211,-0.9100000262260437,0.14000000059604645,-0.49000000953674316,76
17:11:41:786,-0.015500068664550781,-0.313720703125,-0.27980661392211914,-4.3070807456970215,3.036492109298706,7.520641803741455,-2.940000057220459,-0.42000001668930054,-1.1200000047683716,76
17:11:41:829,-0.010485649108886719,0.31372928619384766,0.21643352508544922,-4.304687976837158,3.7423744201660156,8.070990562438965,8.260000228881836,2.309999942779541,-1.8200000524520874,76
17:11:41:866,-0.09644412994384766,-0.14526796340942383,-0.09102058410644531,-4.41475772857666,3.2470602989196777,7.740781307220459,-9.380000114440918,0.8400000333786011,-0.9100000262260437,76
17:11:41:910,-0.06949806213378906,0.257066011428833,0.047781944274902344,-4.405186176300049,3.713660717010498,7.891529560089111,9.730000495910645,2.380000114440918,-1.9600000381469727,76
17:11:41:947,-0.07856988906860352,0.023798227310180664,-0.017288684844970703,-4.433900356292725,3.486342430114746,7.822136878967285,-6.860000133514404,-0.9800000190734863,0.6299999952316284,76
17:11:41:991,0.004143238067626953,-0.10347390174865723,-0.13825750350952148,-4.350151538848877,3.3332018852233887,7.6666035652160645,4.409999847412109,0.14000000059604645,-0.6299999952316284,76
17:11:42:27,0.0071430206298828125,0.24073028564453125,0.10953330993652344,-4.34536600112915,3.73758864402771,7.94177770614624,-3.0799999237060547,-0.14000000059604645,-0.14000000059604645,76
17:11:42:70,-0.03065633773803711,-0.27449464797973633,-0.1516556739807129,-4.390829563140869,3.153740167617798,7.642674922943115,-0.9100000262260437,-0.21000000834465027,-0.2800000011920929,76
17:11:42:108,0.008017539978027344,0.2723689079284668,0.1332721710205078,-4.350151538848877,3.768695831298828,7.960920810699463,6.090000152587891,0.42000001668930054,0.14000000059604645,76
17:11:42:148,0.05044221878051758,-0.29895448684692383,-0.16712093353271484,-4.295116424560547,3.122633695602417,7.618747234344482,-6.650000095367432,-0.699999988079071,0.9100000262260437,76
17:11:42:189,-0.005588531494140625,0.18580174446105957,0.025186538696289062,-4.35254430770874,3.6538403034210205,7.817351341247559,9.100000381469727,1.9600000381469727,0.2800000011920929,76
17:11:42:228,0.014671802520751953,-0.014070749282836914,-0.06024932861328125,-4.328616142272949,3.4504501819610596,7.716853141784668,-6.789999961853027,0.49000000953674316,0.699999988079071,76
17:11:42:267,-0.05909013748168945,-0.007428169250488281,0.030284404754638672,-4.417150497436523,3.455235719680786,7.814958095550537,5.179999828338623,1.8899999856948853,0.9100000262260437,76
17:11:42:309,-0.05492877960205078,-0.019342422485351562,0.04528522491455078,-4.426721572875977,3.438485860824585,7.841279983520508,-4.550000190734863,-0.2800000011920929,0.699999988079071,76
17:11:42:347,0.05942678451538086,0.040039777755737305,0.015170574188232422,-4.29750919342041,3.507878065109253,7.814958095550537,3.9200000762939453,-0.2800000011920929,-0.07000000029802322,76
17:11:42:389,-0.03094339370727539,0.07797384262084961,-0.01466226577758789,-4.395615100860596,3.565305471420288,7.781459331512451,-1.75,0.42000001668930054,1.6100000143051147,76
17:11:42:428,-0.011355400085449219,-0.18073153495788574,-0.07298612594604492,-4.378865718841553,3.2614171504974365,7.704888820648193,-1.8899999856948853,-0.9100000262260437,0.42000001668930054,76
17:11:42:467,-0.014826774597167969,0.07938289642333984,-0.012446403503417969,-4.386044025421143,3.541377305984497,7.762316703796387,2.0299999713897705,-0.14000000059604645,1.2599999904632568,76
17:11:42:510,-0.01760387420654297,-0.12409067153930664,-0.06164264678955078,-4.393222332000732,3.3068809509277344,7.697710037231445,-2.240000009536743,-0.5600000023841858,-0.21000000834465027,76
17:11:42:548,0.05291604995727539,0.1495809555053711,-0.032085418701171875,-4.309473514556885,3.617947816848755,7.719245910644531,5.809999942779541,0.5600000023841858,-0.7699999809265137,76
17:11:42:588,0.013618946075439453,-0.06027555465698242,-0.12138128280639648,-4.34536600112915,3.3930225372314453,7.599604606628418,-3.8499999046325684,-0.699999988079071,0.42000001668930054,76
17:11:42:629,0.04343748092651367,-0.0769343376159668,0.02540731430053711,-4.304687976837158,3.3571300506591797,7.752745151519775,3.0799999237060547,0.7699999809265137,-1.2599999904632568,76
17:11:42:667,0.03666400909423828,0.15476346015930176,0.03563976287841797,-4.302295207977295,3.627518892288208,7.77188777923584,-2.6600000858306885,1.399999976158142,-0.3499999940395355,76
17:11:42:710,0.010188579559326172,-0.04464387893676758,0.017026424407958984,-4.326223373413086,3.4169507026672363,7.75753116607666,1.399999976158142,1.6800000667572021,-0.14000000059604645,76
17:11:42:747,-0.04544830322265625,0.18825316429138184,0.17250394821166992,-4.393222332000732,3.696911096572876,7.956134796142578,-2.1700000762939453,1.0499999523162842,1.2599999904632568,76
17:11:42:789,-0.0880436897277832,-0.13079357147216797,-0.02853679656982422,-4.457828521728516,3.345165967941284,7.747959613800049,-2.309999942779541,-0.14000000059604645,1.5399999618530273,76
17:11:42:828,0.0003924369812011719,0.16527557373046875,0.13988208770751953,-4.369294166564941,3.682554006576538,7.951349258422852,4.550000190734863,0.2800000011920929,1.5399999618530273,76
17:11:42:868,-0.06285619735717773,-0.20468902587890625,-0.06803417205810547,-4.448256969451904,3.2614171504974365,7.726424217224121,-3.0799999237060547,-0.9100000262260437,1.190000057220459,76
17:11:42:909,0.03968524932861328,0.09467363357543945,-0.035284996032714844,-4.335794448852539,3.5844480991363525,7.750352382659912,4.340000152587891,-0.07000000029802322,0.07000000029802322,76
17:11:42:948,0.04131937026977539,-0.1807713508605957,-0.15265512466430664,-4.323830604553223,3.263810157775879,7.594818592071533,-3.8499999046325684,-1.1200000047683716,0.49000000953674316,76
17:11:42:988,0.01008462905883789,0.06595110893249512,-0.0015254020690917969,-4.35254430770874,3.5270204544067383,7.7455668449401855,5.25,0.9100000262260437,-1.3300000429153442,76
17:11:43:30,-0.00341796875,-0.03146624565124512,-0.0605621337890625,-4.366901397705078,3.421736478805542,7.671389579772949,-4.690000057220459,-0.21000000834465027,0.07000000029802322,76
17:11:43:68,-0.012305736541748047,-0.040486812591552734,0.0013208389282226562,-4.378865718841553,3.4025940895080566,7.733603000640869,5.460000038146973,1.4700000286102295,-1.0499999523162842,76
17:11:43:110,-0.05770063400268555,0.09586572647094727,-0.012343406677246094,-4.438685894012451,3.562912940979004,7.716853141784668,-5.25,-0.49000000953674316,0.07000000029802322,76
17:11:43:148,0.03232431411743164,-0.08984780311584473,-0.07495975494384766,-4.340579986572266,3.3547375202178955,7.635497093200684,4.409999847412109,1.8200000524520874,-1.1200000047683716,76
17:11:43:190,-0.027739524841308594,0.20760321617126465,0.11997270584106445,-4.407578945159912,3.704089403152466,7.860422611236572,-2.1700000762939453,0.8400000333786011,0.3499999940395355,76
17:11:43:228,-0.10833358764648438,-0.13254165649414062,-0.13947582244873047,-4.515256404876709,3.3308091163635254,7.566104888916016,-1.8899999856948853,0.49000000953674316,0.21000000834465027,76
17:11:43:268,-0.015839099884033203,0.16961979866027832,0.23872852325439453,-4.426721572875977,3.675375461578369,8.00399112701416,4.130000114440918,1.190000057220459,-0.699999988079071,76
17:11:43:309,0.012213706970214844,-0.13230013847351074,-0.1267833709716797,-4.395615100860596,3.3403804302215576,7.606783390045166,-6.230000019073486,-1.0499999523162842,0.699999988079071,76
17:11:43:348,-0.011286258697509766,0.03964352607727051,-0.009542465209960938,-4.421936511993408,3.5222349166870117,7.7216386795043945,9.869999885559082,2.240000009536743,-0.699999988079071,76
17:11:43:389,0.03499889373779297,-0.17885351181030273,-0.042090415954589844,-4.366901397705078,3.2590243816375732,7.678568363189697,-9.59000015258789,-1.0499999523162842,0.6299999952316284,76
17:11:43:429,-0.0734562873840332,0.0004863739013671875,-0.0011301040649414062,-4.493720531463623,3.438485860824585,7.719245910644531,8.399999618530273,1.1200000047683716,-0.699999988079071,76
17:11:43:468,-0.022394180297851562,0.004217624664306641,-0.041103363037109375,-4.448256969451904,3.4432716369628906,7.668996810913086,-5.599999904632568,-1.8200000524520874,0.7699999809265137,76
17:11:43:510,-0.09448575973510742,-0.34119200706481934,-0.22813701629638672,-4.543970108032227,3.012563943862915,7.424928665161133,6.369999885559082,-0.8400000333786011,-2.240000009536743,76
17:11:43:548,-0.027732372283935547,0.13669753074645996,-0.17293834686279297,-4.484149932861328,3.524627923965454,7.436892509460449,16.520000457763672,7.070000171661377,-3.430000066757202,76
17:11:43:590,0.014185428619384766,0.002159595489501953,-0.19194936752319336,-4.438685894012451,3.390629768371582,7.369894027709961,3.7799999713897705,-0.9800000190734863,-0.21000000834465027,76
17:11:43:630,-0.09393596649169922,-0.19735503196716309,-0.4215559959411621,-4.570291519165039,3.1417763233184814,7.034898281097412,1.3300000429153442,2.7300000190734863,-2.5199999809265137,76
17:11:43:670,0.12010574340820312,0.07756948471069336,-0.4654998779296875,-4.326223373413086,3.436093330383301,6.874579429626465,3.640000104904175,4.690000057220459,-5.53000020980835,76
17:11:43:709,-0.17382526397705078,0.07736945152282715,-0.15226030349731445,-4.663610935211182,3.455235719680786,7.149754047393799,1.399999976158142,5.039999961853027,-1.190000057220459,76
17:11:43:750,-0.28645801544189453,-0.01850295066833496,-0.26920604705810547,-4.847858428955078,3.3547375202178955,6.965506553649902,-1.190000057220459,8.75,-2.5199999809265137,76
17:11:43:788,-0.6656174659729004,-0.36702585220336914,0.5503387451171875,-5.3934221267700195,2.9144580364227295,7.922636032104492,0.14000000059604645,-0.7699999809265137,-1.399999976158142,76
17:11:43:838,-0.4712376594543457,-0.4563326835632324,0.37710046768188477,-5.31685209274292,2.7110681533813477,7.843672752380371,-8.609999656677246,-21.6299991607666,-8.819999694824219,76
17:11:43:870,0.002033233642578125,-0.3650660514831543,-0.25345468521118164,-4.843072891235352,2.7110681533813477,7.149754047393799,-35.209999084472656,-32.689998626708984,-11.829999923706055,76
17:11:43:910,0.4687051773071289,0.05251359939575195,0.3485422134399414,-4.2592244148254395,3.1417763233184814,7.838886737823486,-5.320000171661377,-22.81999969482422,-19.8799991607666,76
17:11:43:950,0.9224421977996826,0.03435373306274414,0.18120670318603516,-3.5748770236968994,3.13220477104187,7.716853141784668,-34.22999954223633,-17.079999923706055,-17.219999313354492,76
17:11:43:989,0.6671264171600342,0.1959378719329834,1.104008674621582,-3.6634113788604736,3.3427734375,8.915657043457031,1.75,1.8899999856948853,-22.329999923706055,76
17:11:44:31,0.5011589527130127,-0.021275997161865234,0.8736362457275391,-3.704089403152466,3.1202406883239746,8.903693199157715,-12.180000305175781,3.2899999618530273,-16.239999771118164,76
17:11:44:69,-0.08338022232055664,-0.007449626922607422,0.5495967864990234,-4.309473514556885,3.13220477104187,8.717053413391113,-5.179999828338623,4.96999979019165,-14.980000495910645,76
17:11:44:111,-0.22367334365844727,-0.4902670383453369,-0.1805434226989746,-4.505684852600098,2.526820659637451,7.94177770614624,-17.780000686645508,4.829999923706055,-14.210000038146973,76
17:11:44:149,-0.3703646659851074,-0.7827222347259521,0.2939310073852539,-4.744967460632324,2.038684844970703,8.489734649658203,-4.829999923706055,2.0299999713897705,-16.8700008392334,76
17:11:44:191,0.07316017150878906,-0.29309678077697754,-0.3927321434020996,-4.2831525802612305,2.455036163330078,7.704888820648193,-13.020000457763672,1.2599999904632568,-18.1299991607666,76
17:11:44:230,0.19444036483764648,-0.046880245208740234,0.24669170379638672,-4.113262176513672,2.68953275680542,8.405985832214355,4.130000114440918,6.230000019073486,-17.010000228881836,76
17:11:44:270,0.2263803482055664,-0.014533519744873047,-0.06681442260742188,-4.0247273445129395,2.7182462215423584,8.075776100158691,-13.930000305175781,8.1899995803833,-9.9399995803833,76
17:11:44:310,-0.2610893249511719,-0.1303105354309082,0.3829994201660156,-4.577469348907471,2.5698914527893066,8.621339797973633,6.860000133514404,11.270000457763672,-6.159999847412109,76
17:11:44:350,-0.2988419532775879,-0.1884758472442627,-0.08793830871582031,-4.689932346343994,2.4646072387695312,8.12841796875,-8.399999618530273,7.980000019073486,-2.940000057220459,76
17:11:44:389,-0.5434408187866211,-0.5432034730911255,0.20913124084472656,-5.0703911781311035,1.9740787744522095,8.477770805358887,1.4700000286102295,8.1899995803833,-3.640000104904175,76
17:11:44:431,-0.3007545471191406,-0.35033559799194336,-0.08729171752929688,-4.902893543243408,2.0793628692626953,8.159524917602539,0.7699999809265137,1.5399999618530273,-4.130000114440918,76
17:11:44:469,-0.20040416717529297,-0.2994110584259033,-0.18277454376220703,-4.852644443511963,2.0554347038269043,8.018348693847656,1.3300000429153442,2.380000114440918,-5.53000020980835,76
17:11:44:511,-0.08183860778808594,-0.22612905502319336,-0.37784528732299805,-4.754538536071777,2.0721843242645264,7.728816509246826,4.690000057220459,4.480000019073486,-4.96999979019165,76
17:11:44:550,-0.16118383407592773,-0.32064390182495117,-0.38841772079467773,-4.874179840087891,1.8975083827972412,7.621140003204346,1.5399999618530273,7.559999942779541,-4.900000095367432,76
17:11:44:592,-0.27251625061035156,-0.3139430284500122,0.20802974700927734,-5.053641319274902,1.8257235288619995,8.2695951461792,8.680000305175781,7.210000038146973,-5.949999809265137,76
17:11:44:631,-0.005530357360839844,-0.040585994720458984,-0.5782227516174316,-4.78803825378418,2.0889341831207275,7.338787078857422,-12.739999771118164,1.190000057220459,-2.6600000858306885,76
17:11:44:671,-0.27624940872192383,-0.12243878841400146,0.05235767364501953,-5.127819538116455,1.9764715433120728,7.982456684112549,5.039999961853027,6.230000019073486,-4.409999847412109,76
17:11:44:710,-0.32628297805786133,-0.41571784019470215,0.6582765579223633,-5.259423732757568,1.5792629718780518,8.752944946289062,-11.829999923706055,-4.199999809265137,-7.420000076293945,76
17:11:44:751,-0.0428013801574707,-0.9604508876800537,1.1927824020385742,-4.986642360687256,0.794417142868042,9.585646629333496,-56.4900016784668,-28.700000762939453,-14.210000038146973,76
17:11:44:790,0.48452281951904297,-1.574263334274292,-0.5676088333129883,-4.3381876945495605,-0.21296121180057526,7.683353424072266,-65.30999755859375,-36.68000030517578,-26.670000076293945,76
17:11:44:831,0.4718461036682129,-2.813788414001465,-2.406630516052246,-4.232903003692627,-2.155933380126953,5.242674350738525,-98.41999816894531,-15.260000228881836,-54.95000076293945,76
17:11:44:871,0.3889622688293457,-3.6580100059509277,-0.7403788566589355,-4.218546390533447,-3.9146575927734375,6.723831653594971,-8.609999656677246,-16.239999771118164,-57.540000915527344,76
17:11:44:912,1.0500733852386475,-2.221961259841919,0.8242478370666504,-3.294916868209839,-3.0340991020202637,8.49452018737793,-34.15999984741211,-14.210000038146973,-79.94000244140625,76
17:11:44:950,0.8170878887176514,0.04863321781158447,1.871124267578125,-3.3236305713653564,-0.7513462901115417,10.009177207946777,-47.38999938964844,-29.329999923706055,-73.36000061035156,76
17:11:44:991,1.4021451473236084,-0.6865972280502319,0.9647350311279297,-2.3880369663238525,-1.6582260131835938,9.343972206115723,-90.09000396728516,-25.829999923706055,-74.2699966430664,76
17:11:45:31,0.6871795654296875,0.5227067470550537,0.7469034194946289,-2.9312076568603516,-0.31824538111686707,9.3128662109375,-19.670000076293945,3.640000104904175,-68.45999908447266,77
17:11:45:71,0.30663299560546875,0.9311865568161011,0.3505830764770508,-3.235095977783203,0.32303106784820557,9.004191398620605,-29.96000099182129,25.969999313354492,-49.4900016784668,77
17:11:45:111,-1.0315041542053223,-0.6907442808151245,0.835601806640625,-4.831109046936035,-1.4715858697891235,9.698110580444336,-46.54999923706055,38.08000183105469,-42.4900016784668,77
17:11:45:151,-1.5870776176452637,0.09250950813293457,-1.115607738494873,-5.783452033996582,-0.6652047038078308,7.46799898147583,-36.189998626708984,53.619998931884766,-25.549999237060547,77
17:11:45:191,-2.014308452606201,-2.006791114807129,-0.6398038864135742,-6.714260101318359,-3.266202926635742,7.783851623535156,-59.220001220703125,47.599998474121094,-18.270000457763672,77
17:11:45:232,-2.239323616027832,-1.9748847484588623,0.09114837646484375,-7.499105930328369,-3.728017807006836,8.537590980529785,-49.209999084472656,21.06999969482422,-24.360000610351562,77
17:11:45:270,-0.39787960052490234,-0.6878633499145508,-0.7636122703552246,-5.757131576538086,-2.612962245941162,7.491927623748779,-67.2699966430664,-2.309999942779541,-22.75,77
17:11:45:312,0.5009989738464355,-1.3887357711791992,-1.0492544174194336,-4.73300313949585,-3.6610186100006104,6.943971633911133,-50.540000915527344,-6.230000019073486,-12.670000076293945,77
17:11:45:350,0.8697924613952637,-0.7874791622161865,-0.9332022666931152,-4.146761417388916,-3.25663161277771,6.826723098754883,14.489999771118164,14.140000343322754,0.21000000834465027,77
17:11:45:391,0.28618288040161133,-0.8022665977478027,-0.6565914154052734,-4.658825397491455,-3.4719858169555664,6.939186096191406,-5.809999942779541,18.40999984741211,9.520000457763672,77
17:11:45:432,-0.027564048767089844,-1.4132590293884277,-0.3931894302368164,-4.979463577270508,-4.436293125152588,7.104290962219238,6.929999828338623,25.40999984741211,13.510000228881836,77
17:11:45:472,-0.12542152404785156,-1.11912202835083,-0.3509230613708496,-5.108676433563232,-4.421936511993408,7.058826446533203,14.350000381469727,20.09000015258789,11.619999885559082,77
17:11:45:511,-0.1730794906616211,-0.7344996929168701,0.08105659484863281,-5.199604034423828,-4.2209391593933105,7.511070251464844,26.040000915527344,25.1299991607666,9.800000190734863,77
17:11:45:552,-0.3815741539001465,-0.6545987129211426,-0.10552358627319336,-5.50349235534668,-4.304687976837158,7.29810905456543,18.479999542236328,12.600000381469727,7,77
17:11:45:591,-0.2650594711303711,-0.28056836128234863,-0.2567024230957031,-5.453242778778076,-4.000799655914307,7.082754611968994,24.149999618530273,13.440000534057617,6.369999885559082,77
17:11:45:633,-0.7748398780822754,-0.2206258773803711,-0.3125600814819336,-6.15673303604126,-3.996013641357422,6.948756694793701,3.7100000381469727,-1.190000057220459,4.199999809265137,77
17:11:45:671,-0.3997316360473633,0.18529391288757324,-0.2117629051208496,-5.881557941436768,-3.5437703132629395,6.996613025665283,9.65999984741211,3.990000009536743,1.4700000286102295,77
17:11:45:711,-0.40975522994995117,0.40474557876586914,-0.42400598526000977,-5.994020462036133,-3.2231321334838867,6.67836856842041,0.6299999952316284,-7.28000020980835,-3.430000066757202,77
17:11:45:776,0.14693164825439453,0.5362792015075684,0.42841243743896484,-5.400600433349609,-2.957528829574585,7.637890338897705,-7.559999942779541,-7.699999809265137,0.7699999809265137,77
17:11:45:793,0.1156306266784668,-0.6104187965393066,0.061333656311035156,-5.402993679046631,-4.256831645965576,7.286144733428955,-35,-24.56999969482422,5.460000038146973,77
17:11:45:833,0.34327268600463867,-0.15525388717651367,-0.19978618621826172,-5.08953332901001,-3.840480089187622,6.975078105926514,16.729999542236328,-5.809999942779541,12.25,77
17:11:45:872,-0.1369471549987793,-0.3654000759124756,1.0270113945007324,-5.603990077972412,-4.141976356506348,8.45862865447998,4.619999885559082,-22.610000610351562,5.599999904632568,77
17:11:45:912,-0.597693920135498,0.737551212310791,0.8503222465515137,-6.214160442352295,-2.854637384414673,8.49452018737793,-3.5,-43.959999084472656,-3.430000066757202,77
17:11:45:952,-1.1079459190368652,-0.5087435245513916,1.9647245407104492,-7.001399040222168,-4.228117942810059,10.100104331970215,-51.869998931884766,-77,-7,77
17:11:45:991,-2.434990882873535,0.2591674327850342,2.278140068054199,-8.9371919631958,-3.3954150676727295,10.983055114746094,-99.68000030517578,-152.25,-56,77
17:11:46:33,0.3472023010253906,-4.187803268432617,-1.3111281394958496,-6.068198204040527,-8.889336585998535,7.066005229949951,-144.69000244140625,-192.2899932861328,-32.619998931884766,77
17:11:46:71,3.9531376361846924,-2.7089662551879883,-0.3004274368286133,-1.4739787578582764,-8.087740898132324,8.001599311828613,21.139999389648438,-149.3800048828125,-99.95999908447266,77
17:11:46:122,5.599360466003418,-1.2521576881408691,-5.278669834136963,1.5720844268798828,-6.943971633911133,1.703689694404602,-107.0999984741211,-125.37000274658203,-114.66000366210938,77
17:11:46:170,7.722241401672363,2.690877914428711,-4.670872211456299,5.625525951385498,-2.328216552734375,1.1437692642211914,-104.16000366210938,-14.210000038146973,-112.20999908447266,77
17:11:46:192,3.656715154647827,0.0661611557006836,-3.4610447883605957,2.4741785526275635,-4.9363932609558105,1.4883356094360352,-173.4600067138672,91.62999725341797,-100.44999694824219,77
17:11:46:225,0.702918529510498,-0.9367423057556152,0.1370081901550293,-0.3038884699344635,-6.173482418060303,5.120640754699707,-12.949999809265137,97.72000122070312,-42.90999984741211,77
17:11:46:268,0.18331170082092285,-1.5514674186706543,2.906337261199951,-0.7776673436164856,-7.176074504852295,8.616554260253906,-98.06999969482422,39.619998931884766,-17.639999389648438,77
17:11:46:312,-0.5922544002532959,-2.0279340744018555,1.105687141418457,-1.7012970447540283,-8.159524917602539,7.0923261642456055,14.489999771118164,24.780000686645508,-17.920000076293945,77
17:11:46:351,0.13684487342834473,-0.9542717933654785,-0.6717424392700195,-0.9379864931106567,-7.324430465698242,5.146961212158203,-89.80999755859375,-5.809999942779541,4.96999979019165,77
17:11:46:391,0.34110116958618164,-1.153925895690918,1.6544318199157715,-0.6484549045562744,-7.812565803527832,7.886743545532227,9.100000381469727,39.83000183105469,-5.740000247955322,77
17:11:46:435,0.07762658596038818,-0.8274283409118652,-2.7117106914520264,-0.8925228118896484,-7.692924976348877,2.8426735401153564,-76.6500015258789,-26.46000099182129,25.270000457763672,77
17:11:46:471,1.1953420639038086,-0.2886619567871094,-0.47333621978759766,0.5240281224250793,-7.226324081420898,4.962714195251465,73.77999877929688,24.290000915527344,11.899999618530273,77
17:11:46:513,0.5734220743179321,-0.2730436325073242,-0.7653493881225586,0.04546363279223442,-7.278966426849365,4.479363918304443,28.700000762939453,-9.100000381469727,55.51000213623047,77
17:11:46:552,0.16777044534683228,-0.5304594039916992,1.1201238632202148,-0.31824538111686707,-7.668996810913086,6.64486837387085,50.68000030517578,4.480000019073486,46.970001220703125,77
17:11:46:593,-1.5177884101867676,-0.6540780067443848,0.18590974807739258,-2.383251428604126,-7.956134796142578,5.757131576538086,56.77000045776367,-4.619999885559082,58.2400016784668,77
17:11:46:632,-0.1709599494934082,-1.311936378479004,0.42055225372314453,-1.0791629552841187,-8.941977500915527,6.096912384033203,28.420000076293945,6.860000133514404,53.900001525878906,77
17:11:46:673,0.4489949941635132,-4.066420555114746,0.23307180404663086,-0.34695929288864136,-12.713067054748535,5.9676995277404785,-66.77999877929688,29.96000099182129,-0.6299999952316284,77
17:11:46:713,-1.6833173036575317,2.748063087463379,1.7408347129821777,-2.9001009464263916,-5.2115678787231445,7.910671234130859,118.86000061035156,16.3799991607666,-18.200000762939453,77
17:11:46:753,0.17709559202194214,3.8159985542297363,0.05843019485473633,-0.9954141974449158,-3.1896328926086426,6.242874622344971,-1.1200000047683716,-32.20000076293945,32.7599983215332,77
17:11:46:792,0.9073797464370728,0.9968862533569336,-0.6538748741149902,-0.038285162299871445,-5.759523868560791,5.367101192474365,7.980000019073486,-47.880001068115234,64.88999938964844,77
17:11:46:834,1.9414576292037964,0.6520252227783203,-0.32784557342529297,1.4811571836471558,-5.941378593444824,5.61116886138916,91.84000396728516,-61.11000061035156,111.51000213623047,77
17:11:46:872,2.7572343349456787,0.8106732368469238,-2.5459859371185303,2.9862425327301025,-5.580062389373779,2.7565319538116455,157.36000061035156,15.819999694824219,118.2300033569336,77
17:11:46:964,-1.0829079151153564,2.6680805683135986,-0.10147380828857422,-1.124626636505127,-3.0556347370147705,5.175675392150879,89.73999786376953,136.85000610351562,112.84000396728516,77
17:11:46:968,-4.786727428436279,-3.451340675354004,4.4077558517456055,-6.02512788772583,-10.037891387939453,10.786844253540039,-60.970001220703125,128.3800048828125,100.94000244140625,77
17:11:46:984,-3.3642170429229736,-1.972397804260254,1.4262633323669434,-5.443671703338623,-9.052047729492188,8.161917686462402,35.13999938964844,84.06999969482422,71.61000061035156,77
17:11:47:36,-2.8138861656188965,1.8428606986999512,0.4040212631225586,-5.5968122482299805,-4.776073932647705,7.240681171417236,13.300000190734863,80.70999908447266,43.400001525878906,77
17:11:47:72,-4.178767204284668,-1.152073860168457,0.20453310012817383,-8.00638484954834,-8.059026718139648,7.0923261642456055,-14.279999732971191,41.02000045776367,19.670000076293945,77
17:11:47:117,-1.9398627281188965,2.4818921089172363,-0.30153799057006836,-6.252446174621582,-3.8045878410339355,6.510870456695557,85.75,33.040000915527344,11.6899995803833,77
17:11:47:153,-1.728001594543457,3.3388941287994385,0.0057086944580078125,-6.472585201263428,-2.1128623485565186,6.819544315338135,27.93000030517578,31.5,10.359999656677246,77
17:11:47:196,-2.0198493003845215,1.0191106796264648,0.07730865478515625,-7.269395351409912,-4.177868366241455,6.910471439361572,-21,13.230000495910645,26.31999969482422,77
17:11:47:234,-1.6139650344848633,0.4190373420715332,-2.369260787963867,-7.267002105712891,-4.673182487487793,3.871586799621582,90.2300033569336,21.139999389648438,41.02000045776367,77
17:11:47:273,-1.6816811561584473,4.259459018707275,0.4265866279602051,-7.755138397216797,0.23210379481315613,6.774080753326416,91.9800033569336,11.829999923706055,-4.760000228881836,77
17:11:47:315,0.02143573760986328,-0.09743928909301758,-0.4627189636230469,-6.0466628074646,-4.149154186248779,5.769095420837402,-116.83000183105469,-18.200000762939453,35.06999969482422,77
17:11:47:354,-0.23936176300048828,-0.8666257858276367,-0.7453694343566895,-6.367300987243652,-5.134997367858887,5.300102710723877,34.02000045776367,11.829999923706055,-6.929999828338623,77
17:11:47:393,-0.1934037208557129,0.9414758682250977,-0.03541851043701172,-6.369694232940674,-3.091526985168457,6.001199245452881,63.42000198364258,21.06999969482422,15.119999885559082,77
17:11:47:436,-0.8113136291503906,0.8106086254119873,0.8541383743286133,-7.190432548522949,-3.019742012023926,7.104290962219238,-1.6800000667572021,7.28000020980835,6.650000095367432,77
17:11:47:474,0.6449880599975586,0.5642592906951904,-0.036450862884521484,-5.572883605957031,-3.1250264644622803,6.204589366912842,-24.639999389648438,9.100000381469727,1.6800000667572021,77
17:11:47:515,-0.5732226371765137,0.5988054275512695,0.3173198699951172,-6.9344000816345215,-2.940778970718384,6.63769006729126,-26.25,12.390000343322754,2.1700000762939453,77
17:11:47:553,-0.4490070343017578,0.3584458827972412,-0.4601626396179199,-6.922436237335205,-3.091526985168457,5.745166778564453,-40.67000198364258,6.300000190734863,5.880000114440918,77
17:11:47:595,-0.636772632598877,0.6581227779388428,0.3363170623779297,-7.269395351409912,-2.627319574356079,6.625725746154785,-30.59000015258789,4.690000057220459,11.130000114440918,77
17:11:47:636,-0.8539843559265137,-0.7560544013977051,-0.42007923126220703,-7.700103282928467,-4.230510234832764,5.764309883117676,-51.59000015258789,-9.65999984741211,14.420000076293945,77
17:11:47:676,-0.03425407409667969,-0.139678955078125,-0.27289295196533203,-6.888936519622803,-3.649054527282715,5.843273162841797,10.850000381469727,-6.019999980926514,10.220000267028809,77
17:11:47:716,3.9561681747436523,-0.027515888214111328,1.2614073753356934,-1.9094725847244263,-3.5437703132629395,7.692924976348877,-23.59000015258789,-3.7799999713897705,-1.190000057220459,77
17:11:47:820,-0.6463532447814941,0.582892656326294,-0.48590993881225586,-6.673582077026367,-2.7876384258270264,5.824130058288574,7.630000114440918,-7.349999904632568,116.27000427246094,77
17:11:47:827,-1.1621875762939453,0.292116641998291,-0.6777806282043457,-7.479963302612305,-3.005385160446167,5.4628143310546875,51.099998474121094,-100.66000366210938,-52.220001220703125,77
17:11:47:831,0.012064933776855469,-1.948561191558838,1.5615453720092773,-6.302694320678711,-5.733203411102295,8.09252643585205,125.37000274658203,229.9499969482422,-104.6500015258789,77
17:11:47:870,-2.7392234802246094,3.2421107292175293,-3.8465187549591064,-9.738788604736328,0.2679961323738098,1.722832441329956,111.16000366210938,116.27000427246094,233.4499969482422,77
17:11:47:916,-6.222805023193359,4.209322452545166,0.8431859016418457,-14.778071403503418,2.287538528442383,6.62333345413208,43.470001220703125,-91.41999816894531,255.00999450683594,77
17:11:47:954,1.5206613540649414,-0.16626262664794922,0.5807504653930664,-6.654439926147461,-2.1296122074127197,6.506085395812988,9.239999771118164,-17.290000915527344,-54.95000076293945,77
17:11:48:1,-1.9745397567749023,1.5630226135253906,0.11046218872070312,-10.643275260925293,-0.009571290574967861,6.063412666320801,18.479999542236328,-33.7400016784668,-18.479999542236328,78
17:11:48:35,-1.3805484771728516,-0.6236406564712524,1.7480316162109375,-10.394421577453613,-2.352144718170166,8.13798999786377,45.290000915527344,-109.34000396728516,-20.229999542236328,78
17:11:48:75,-0.6105594635009766,1.740769624710083,1.8367905616760254,-9.77707290649414,0.44745784997940063,8.685946464538574,55.369998931884766,-152.4600067138672,-14.489999771118164,78
17:11:48:115,1.5196094512939453,0.8776803016662598,0.9985246658325195,-7.267002105712891,-0.19621144235134125,8.097311973571777,30.239999771118164,-174.9300079345703,-17.219999313354492,78
17:11:48:156,1.3458566665649414,0.7634004950523376,-0.4588479995727539,-7.104290962219238,-0.11964112520217896,6.525227069854736,6.159999847412109,-139.44000244140625,-33.459999084472656,78
17:11:48:194,3.09622859954834,2.0425853729248047,-3.2040090560913086,-4.579862117767334,1.6701902151107788,2.9790639877319336,5.670000076293945,-133.49000549316406,-14.770000457763672,78
17:11:48:237,5.174172401428223,0.9104787111282349,-0.40775251388549805,-1.2083754539489746,0.7657032012939453,5.67338228225708,-16.309999465942383,-99.19000244140625,-6.789999961853027,78
17:11:48:274,3.664602041244507,0.8011248111724854,-0.9598212242126465,-1.801795244216919,0.8566305041313171,4.8813581466674805,-84.55999755859375,0.7699999809265137,-11.550000190734863,78
17:11:48:316,3.3911032676696777,1.710970163345337,-1.269392967224121,-1.227518081665039,2.194218397140503,4.254438400268555,-112.20999908447266,32.54999923706055,5.320000171661377,78
17:11:48:355,2.9961929321289062,3.709913969039917,-2.0836703777313232,-0.8733802437782288,5.120640754699707,2.919243574142456,-323.3999938964844,102.4800033569336,0.21000000834465027,78
17:11:48:395,1.0684592723846436,-7.868683815002441,-3.910446882247925,-2.53399920463562,-8.425127983093262,0.11485548317432404,-366.8699951171875,192.57000732421875,-63,78
17:11:48:436,-4.281187057495117,-8.925138473510742,-3.999345064163208,-8.95394229888916,-11.71286678314209,-0.973878800868988,-34.09000015258789,129.0800018310547,143.0800018310547,78
17:11:48:476,-1.0914688110351562,0.7389755249023438,0.0030777454376220703,-6.037091255187988,-1.864008903503418,3.029313325881958,227.7100067138672,133.77000427246094,192.99000549316406,78
17:11:48:515,-4.791661739349365,1.2956273555755615,1.1567599773406982,-10.935199737548828,-0.9834501147270203,4.4721856117248535,164.77999877929688,170.30999755859375,177.3800048828125,78
17:11:48:563,-5.582961082458496,4.87267541885376,1.8729655742645264,-13.122239112854004,3.8117666244506836,5.656632423400879,-32.7599983215332,157.63999938964844,119.69999694824219,78
17:11:48:638,-4.675023078918457,2.3093059062957764,-0.6800532341003418,-13.383056640625,1.8257235288619995,2.933600425720215,-442.04998779296875,129.00999450683594,19.530000686645508,78
17:11:48:642,-4.222411155700684,-9.32990837097168,-9.311345100402832,-13.986047744750977,-12.145968437194824,-8.025527954101562,-479.8500061035156,38.709999084472656,25.6200008392334,78
17:11:48:668,-0.6960535049438477,-3.8612918853759766,-1.5244464874267578,-10.63370418548584,-7.642674922943115,-0.6197410225868225,134.75,-1.9600000381469727,85.54000091552734,78
17:11:48:713,-0.1663341522216797,1.757867455482483,0.6813011169433594,-10.14556884765625,-1.5840486288070679,1.7563319206237793,348.80999755859375,17.989999771118164,65.30999755859375,78
17:11:48:755,-0.7418003082275391,3.5349488258361816,2.7215523719787598,-10.906485557556152,1.0767701864242554,4.47697114944458,215.11000061035156,4.550000190734863,31.780000686645508,78
17:11:48:796,0.022950172424316406,0.7261037826538086,0.6094644069671631,-10.13599681854248,-1.550549030303955,2.517249345779419,-59.01000213623047,-19.110000610351562,1.8200000524520874,78
17:11:48:836,0.5026683807373047,-0.052736520767211914,1.4064154624938965,-9.530611991882324,-2.342573404312134,3.665804386138916,-51.59000015258789,-26.46000099182129,-22.96000099182129,78
17:11:48:876,0.5686740875244141,-0.16852998733520508,0.22543096542358398,-9.322437286376953,-2.5004994869232178,2.541177749633789,-63.97999954223633,-14.84000015258789,-29.469999313354492,78
17:11:48:916,0.7631359100341797,0.32459771633148193,-0.2216496467590332,-8.9371919631958,-1.9262222051620483,2.038684844970703,-55.369998931884766,-3.9200000762939453,-29.75,78
17:11:48:956,0.8325624465942383,0.4587608575820923,-0.5525144338607788,-8.659625053405762,-1.6773687601089478,1.56969153881073,-66.1500015258789,14.069999694824219,-27.020000457763672,78
17:11:48:994,0.6162796020507812,0.20238244533538818,-0.606637716293335,-8.721837997436523,-1.8831514120101929,1.3639088869094849,-60.900001525878906,20.020000457763672,-19.809999465942383,78
17:11:49:38,0.6021366119384766,0.7323548793792725,0.0506821870803833,-8.585447311401367,-1.1700903177261353,2.0338993072509766,-64.54000091552734,30.59000015258789,-9.170000076293945,78
17:11:49:76,0.5697650909423828,0.2834312915802002,-0.5701025724411011,-8.475377082824707,-1.5481561422348022,1.2705888748168945,-88.12999725341797,45.63999938964844,-5.320000171661377,78
17:11:49:117,0.3198986053466797,0.5961967706680298,0.4436192512512207,-8.645268440246582,-1.0863415002822876,2.3952155113220215,-89.45999908447266,52.290000915527344,14.980000495910645,78
17:11:49:155,-0.9404926300048828,0.1687619686126709,-0.7343175411224365,-10.140782356262207,-1.4715858697891235,1.0336993932724,-89.18000030517578,59.709999084472656,30.799999237060547,78
17:11:49:196,-0.6987953186035156,-0.477553129196167,-0.7080523371696472,-10.073783874511719,-2.2372891902923584,0.882951557636261,-74.9000015258789,32.130001068115234,35,78
17:11:49:236,-0.2891254425048828,-0.2614443302154541,-0.8976085782051086,-9.736394882202148,-2.0865414142608643,0.46899324655532837,-11.199999809265137,22.049999237060547,39.20000076293945,78
17:11:49:277,-0.6294660568237305,0.286637544631958,-0.7104299068450928,-10.234102249145508,-1.4668002128601074,0.4785645008087158,42.06999969482422,13.020000457763672,37.79999923706055,78
17:11:49:315,-0.6758556365966797,0.24079549312591553,-0.9837378859519958,-10.449455261230469,-1.4524433612823486,-0.0406779870390892,27.860000610351562,-0.9100000262260437,28.559999465942383,78
17:11:49:357,-0.6287403106689453,0.2194359302520752,-0.6951059103012085,-10.559525489807129,-1.4189438819885254,0.07417750358581543,19.25,-18.40999984741211,20.440000534057617,78
17:11:49:395,-0.24265384674072266,0.03197944164276123,-0.6001126766204834,-10.234102249145508,-1.5984054803848267,0.019142581149935722,19.110000610351562,-34.790000915527344,7.139999866485596,78
17:11:49:438,-0.13286781311035156,0.1768099069595337,-0.5834600925445557,-10.157532691955566,-1.4093725681304932,-0.11006984114646912,14.279999732971191,-41.58000183105469,-3.009999990463257,78
17:11:49:475,0.1770162582397461,0.33287370204925537,-0.439968466758728,-9.803394317626953,-1.1700903177261353,-0.07657032459974289,15.329999923706055,-51.380001068115234,-4.829999923706055,78
17:11:49:517,0.5895490646362305,0.09975838661193848,0.0021629929542541504,-9.243474006652832,-1.3782659769058228,0.3661018908023834,4.409999847412109,-53.900001525878906,-10.079999923706055,78
17:11:49:555,-0.17538070678710938,0.033864617347717285,0.36926791071891785,-10.05224895477295,-1.435693621635437,0.8255237936973572,2.380000114440918,-56.97999954223633,-9.380000114440918,78
17:11:49:597,0.2616901397705078,-0.05139279365539551,0.28775733709335327,-9.549755096435547,-1.5337992906570435,0.8159525394439697,-9.239999771118164,-45.9900016784668,-18.200000762939453,78
17:11:49:636,0.2686939239501953,0.44510728120803833,0.5441442131996155,-9.475577354431152,-0.9260223507881165,1.2083754539489746,35.349998474121094,-46.689998626708984,-11.34000015258789,78
17:11:49:677,0.2781257629394531,-0.2832763195037842,0.7875388860702515,-9.396614074707031,-1.7252250909805298,1.648654818534851,28.84000015258789,-51.310001373291016,-10.640000343322754,78
17:11:49:716,-0.3690061569213867,0.374455988407135,1.6503307819366455,-10.13599681854248,-0.973878800868988,2.9240293502807617,52.63999938964844,-62.09000015258789,-19.18000030517578,78
17:11:49:758,-0.6991128921508789,-0.3110835552215576,1.622717261314392,-10.640881538391113,-1.7371891736984253,3.3020951747894287,12.180000305175781,-66.08000183105469,-43.189998626708984,78
17:11:49:794,-1.0474271774291992,-1.3131943941116333,1.2158607244491577,-11.251051902770996,-3.067598581314087,3.1992037296295166,24.010000228881836,-85.54000091552734,-66.08000183105469,78
17:11:49:839,-0.010982513427734375,-0.5681624412536621,1.0703155994415283,-10.217352867126465,-2.4646072387695312,3.321237564086914,26.389999389648438,-104.16000366210938,-83.51000213623047,78
17:11:49:877,1.0268268585205078,-0.5253574848175049,1.045764446258545,-8.922836303710938,-2.5531415939331055,3.5581274032592773,18.40999984741211,-110.45999908447266,-87.01000213623047,78
17:11:49:917,2.597893714904785,-0.20206069946289062,0.36378979682922363,-6.702296257019043,-2.280359983444214,2.967100143432617,3.009999990463257,-88.97000122070312,-77.20999908447266,78
17:11:49:958,3.023958206176758,0.2078031301498413,0.41545867919921875,-5.520241737365723,-1.8185452222824097,3.122633695602417,-2.870000123977661,-66.01000213623047,-54.25,78
17:11:49:996,2.8039321899414062,-0.08452534675598145,0.682675838470459,-5.039284706115723,-2.132004976272583,3.5605196952819824,-49.84000015258789,-39.689998626708984,-31.5,78
17:11:50:37,2.392457962036133,-0.360501766204834,-0.06833577156066895,-4.852644443511963,-2.4981069564819336,2.792424201965332,-99.95999908447266,-35.97999954223633,-8.260000228881836,79
17:11:50:76,0.9510946273803711,-0.805250883102417,0.9005460739135742,-6.056234359741211,-3.1441688537597656,3.9864425659179688,-72.16999816894531,-27.299999237060547,19.31999969482422,79
17:11:50:116,-0.2938804626464844,-1.7027857303619385,2.998404026031494,-7.3746795654296875,-4.467400074005127,6.833901405334473,-96.31999969482422,-57.68000030517578,16.8700008392334,79
17:11:50:156,0.14200496673583984,-3.069746255874634,3.260138988494873,-6.903293132781982,-6.601797103881836,7.910671234130859,-105.27999877929688,-22.329999923706055,10.5,79
17:11:50:196,0.1767745018005371,-1.44315505027771,2.0855188369750977,-6.824329853057861,-5.335994720458984,7.2574310302734375,-119.55999755859375,-0.5600000023841858,3.9200000762939453,79
17:11:50:236,0.005506992340087891,-2.1767377853393555,-0.21712923049926758,-6.994220733642578,-6.613761901855469,4.900500774383545,-47.810001373291016,0.9100000262260437,-15.050000190734863,79
17:11:50:277,0.3700284957885742,-0.5239214897155762,0.6838841438293457,-6.537191867828369,-5.091926097869873,5.972485065460205,4.690000057220459,3.7799999713897705,-15.75,79
17:11:50:316,-0.21316957473754883,-1.6366057395935059,0.1106572151184082,-7.17368221282959,-6.613761901855469,5.42692232131958,-13.020000457763672,-16.3799991607666,-22.96000099182129,79
17:11:50:356,0.443941593170166,-1.1752862930297852,0.30292224884033203,-6.405585765838623,-6.446264266967773,5.694917678833008,-6.579999923706055,-25.760000228881836,-37.79999923706055,79
17:11:50:396,0.9772868156433105,-0.3161807060241699,-0.4372239112854004,-5.627918720245361,-5.66620397567749,4.845465660095215,0.49000000953674316,-29.469999313354492,-38.290000915527344,79
17:11:50:437,1.162766933441162,-0.8482789993286133,-0.38614988327026367,-5.151747226715088,-6.410372257232666,4.800002098083496,2.0999999046325684,-35.349998474121094,-36.2599983215332,79
17:11:50:476,1.0737829208374023,-0.27854251861572266,-0.11175155639648438,-4.972285747528076,-5.910271644592285,5.046462535858154,14.489999771118164,-29.329999923706055,-33.11000061035156,79
17:11:50:517,0.45511865615844727,-1.3197040557861328,-0.12194347381591797,-5.477170467376709,-7.2813591957092285,5.005784511566162,-10.569999694824219,-31.360000610351562,-33.95000076293945,79
17:11:50:556,0.7431173324584961,-1.2605891227722168,0.48055171966552734,-5.003392219543457,-7.537391662597656,5.72841739654541,16.65999984741211,-23.3799991607666,-44.52000045776367,79
17:11:50:597,0.9869170188903809,-0.6524190902709961,0.09921741485595703,-4.5128631591796875,-7.0923261642456055,5.37188720703125,-2.5199999809265137,-23.100000381469727,-50.959999084472656,79
17:11:50:647,1.6834919452667236,0.13082647323608398,-0.050795555114746094,-3.3954150676727295,-6.276373863220215,5.209175109863281,5.110000133514404,-35.42000198364258,-44.72999954223633,79
17:11:50:700,1.5631043910980225,0.04340505599975586,0.11441850662231445,-3.1250264644622803,-6.3529438972473145,5.402993679046631,-7.139999866485596,-42.84000015258789,-35.630001068115234,79
17:11:50:723,1.034172773361206,-0.41321277618408203,-0.22814655303955078,-3.3954150676727295,-6.912864685058594,5.003392219543457,-57.88999938964844,-51.17000198364258,-24.850000381469727,79
17:11:50:748,1.2771885395050049,0.029310226440429688,-1.1492176055908203,-2.833101987838745,-6.463014125823975,3.7950167655944824,-35.90999984741211,-40.18000030517578,-23.239999771118164,79
17:11:50:793,1.5749714374542236,-0.6427130699157715,-0.42166709899902344,-2.1415762901306152,-7.295715808868408,4.417150497436523,-17.71000099182129,-34.369998931884766,-19.110000610351562,79
17:11:50:837,1.6083723306655884,0.7377538681030273,-0.5785303115844727,-1.7060824632644653,-5.730810642242432,4.115654945373535,-30.239999771118164,-11.480000495910645,-1.8200000524520874,79
17:11:50:877,1.7442055940628052,1.1625666618347168,-0.878218412399292,-1.1341978311538696,-5.015356063842773,3.596412420272827,-55.86000061035156,5.809999942779541,25.549999237060547,79
17:11:50:922,1.1120543479919434,1.578986644744873,-1.5103919506072998,-1.4883356094360352,-4.204189300537109,2.5866410732269287,-64.26000213623047,28.280000686645508,64.47000122070312,79
17:11:50:956,0.4302215576171875,0.9530797004699707,-0.8905465602874756,-2.062613010406494,-4.591826438903809,2.9838497638702393,-116.41000366210938,54.529998779296875,117.25,79
17:11:50:997,-0.45215439796447754,1.279313325881958,-1.615967035293579,-3.058027505874634,-3.9457647800445557,1.8544375896453857,-98.9800033569336,83.37000274658203,161.49000549316406,79
17:11:51:46,-3.365194797515869,2.3787455558776855,-3.5018274784088135,-6.812366485595703,-2.251646041870117,-0.906879723072052,-37.79999923706055,95.12999725341797,199.22000122070312,79
17:11:51:120,-6.45750093460083,0.40030384063720703,-2.856975555419922,-11.519047737121582,-4.130012035369873,-0.9762716889381409,53.34000015258789,74.05999755859375,254.94000244140625,79
17:11:51:124,-8.230728149414062,-0.3114614486694336,-2.823486804962158,-15.349957466125488,-4.919642925262451,-1.648654818534851,50.75,124.5999984741211,263.4800109863281,79
17:11:51:149,-5.97010612487793,-1.0263586044311523,-0.09376358985900879,-14.58186149597168,-5.891129493713379,1.057627558708191,91,164.9199981689453,226.72999572753906,79
17:11:51:194,-2.055924415588379,-1.008683681488037,0.8993465900421143,-11.181660652160645,-6.1256256103515625,2.2755744457244873,152.52999877929688,204.3300018310547,145.11000061035156,79
17:11:51:238,-2.295586585998535,0.8125152587890625,2.0920004844665527,-11.995219230651855,-4.101297855377197,3.9912283420562744,163.52000427246094,195.02000427246094,83.30000305175781,79
17:11:51:279,-3.059680938720703,3.8659656047821045,4.001338005065918,-13.5242338180542,-0.0813559740781784,6.900900363922119,41.5099983215332,62.439998626708984,-4.619999885559082,79
17:11:51:318,0.3260154724121094,-0.8563423156738281,-2.4479050636291504,-10.05703353881836,-5.017749309539795,-0.16031910479068756,-16.239999771118164,-12.109999656677246,-33.529998779296875,79
17:11:51:359,0.4139528274536133,1.1794137954711914,-2.836968421936035,-9.865608215332031,-2.6871397495269775,-1.2586246728897095,115.98999786376953,4.340000152587891,-14.5600004196167,79
17:11:51:397,-0.5532245635986328,0.8918459415435791,-2.755796432495117,-10.971091270446777,-2.75174617767334,-1.8664016723632812,119.84000396728516,-21.139999389648438,-9.9399995803833,79
17:11:51:439,1.0639410018920898,0.9068169593811035,-1.869641900062561,-9.087940216064453,-2.51007080078125,-1.447657585144043,95.34000396728516,-60.060001373291016,-3.569999933242798,79
17:11:51:477,0.7784109115600586,1.9467501640319824,-1.6354544162750244,-9.17886734008789,-0.9834501147270203,-1.6223337650299072,35.13999938964844,-70.48999786376953,-6.789999961853027,79
17:11:51:569,0.9940938949584961,1.2932323217391968,-1.4615041017532349,-8.71466064453125,-1.3136597871780396,-1.813759446144104,-11.760000228881836,-60.40999984741211,-10.010000228881836,79
17:11:51:573,0.9350166320800781,0.6881052255630493,-0.9873488545417786,-8.539983749389648,-1.7467604875564575,-1.5864413976669312,-27.510000228881836,-40.880001068115234,-6.369999885559082,79
17:11:51:590,0.3938760757446289,0.062348365783691406,-0.9353627562522888,-8.98265552520752,-2.3569302558898926,-1.7682960033416748,-31.360000610351562,-14.350000381469727,1.6800000667572021,79
17:11:51:636,0.12941741943359375,0.009679317474365234,-1.111999273300171,-9.214759826660156,-2.407179594039917,-2.2229323387145996,-18.969999313354492,4.199999809265137,8.960000038146973,79
17:11:51:677,0.1915903091430664,0.22979736328125,-0.9317131042480469,-9.104689598083496,-2.1296122074127197,-2.2755744457244873,-13.230000495910645,17.079999923706055,9.100000381469727,79
17:11:51:719,0.03650188446044922,0.4384341239929199,-0.352947473526001,-9.250652313232422,-1.8113667964935303,-1.7850456237792969,-16.59000015258789,28.559999465942383,3.8499999046325684,79
17:11:51:758,-0.1430816650390625,0.35457587242126465,-0.012447595596313477,-9.4660062789917,-1.8065810203552246,-1.447657585144043,-21.700000762939453,38.9900016784668,1.6100000143051147,79
17:11:51:798,-0.21974945068359375,0.415744423866272,0.5566622614860535,-9.597611427307129,-1.6414762735366821,-0.7393822073936462,-22.190000534057617,51.72999954223633,5.809999942779541,79
17:11:51:845,0.44824790954589844,0.6886475086212158,1.9499366283416748,-8.817551612854004,-1.196411371231079,1.1413763761520386,-34.439998626708984,63.77000045776367,2.940000057220459,79
17:11:51:873,-1.865769386291504,0.9107986092567444,1.9274868965148926,-11.598011016845703,-0.7465606331825256,1.6007983684539795,-10.989999771118164,99.61000061035156,21.770000457763672,79
17:11:51:911,-1.7893266677856445,0.15053296089172363,1.2835646867752075,-11.968899726867676,-1.4691929817199707,1.277767300605774,-8.1899995803833,35,10.920000076293945,79
17:11:51:952,-0.2848196029663086,-1.0798137187957764,-0.6538668870925903,-10.535597801208496,-2.9694931507110596,-0.8231310248374939,-42.4900016784668,-36.2599983215332,3.5,79
17:11:51:994,0.18753814697265625,0.21387648582458496,-0.7987465858459473,-10.016355514526367,-1.6223337650299072,-1.1676974296569824,4.340000152587891,-72.87000274658203,19.040000915527344,79
17:11:52:33,0.5099105834960938,0.4639827013015747,-0.011120617389678955,-9.566505432128906,-1.2562319040298462,-0.38285160064697266,12.25,-70.69999694824219,14.5600004196167,79
17:11:52:72,0.6606111526489258,0.6085541248321533,0.07341659069061279,-9.250652313232422,-0.9595218896865845,-0.2799602448940277,-16.309999465942383,-52.150001525878906,0.7699999809265137,79
17:11:52:131,0.4729747772216797,-0.05680584907531738,-0.5059728622436523,-9.32004451751709,-1.6390833854675293,-0.9858429431915283,-43.33000183105469,-33.11000061035156,-10.359999656677246,79
17:11:52:150,0.43389320373535156,-0.27324140071868896,-1.0651973485946655,-9.250652313232422,-1.9238293170928955,-1.8113667964935303,-45.9900016784668,-22.540000915527344,-13.09000015258789,79
17:11:52:188,0.264801025390625,-0.343019962310791,-1.1488677263259888,-9.353544235229492,-2.0793628692626953,-2.1822540760040283,-24.5,-22.1200008392334,-5.460000038146973,79
17:11:52:230,0.3324394226074219,0.029950976371765137,-0.4673292636871338,-9.20279598236084,-1.6989041566848755,-1.6175479888916016,-11.760000228881836,-21.06999969482422,0.699999988079071,79
17:11:52:268,0.45163536071777344,-0.012410163879394531,-0.2149801254272461,-8.970691680908203,-1.7443678379058838,-1.4189438819885254,-14.84000015258789,-16.030000686645508,2.0999999046325684,79
17:11:52:309,0.30196571350097656,0.18149781227111816,0.5496912598609924,-9.044869422912598,-1.5050854682922363,-0.5168496966362,-8.539999961853027,0.9800000190734863,5.460000038146973,79
17:11:52:352,-0.018766403198242188,0.02842855453491211,0.18707096576690674,-9.370293617248535,-1.6510475873947144,-0.8327022790908813,-13.579999923706055,10.710000038146973,6.720000267028809,79
17:11:52:395,-0.11072635650634766,0.17588353157043457,0.20517027378082275,-9.489934921264648,-1.459621787071228,-0.763310432434082,-14,11.829999923706055,8.1899995803833,79
17:11:52:436,-0.3106346130371094,-0.03540492057800293,-0.42928385734558105,-9.767501831054688,-1.6797614097595215,-1.5050854682922363,-27.510000228881836,4.900000095367432,4.96999979019165,79
17:11:52:477,-0.45716190338134766,-0.08958029747009277,-0.19220054149627686,-10.028319358825684,-1.7563319206237793,-1.3160523176193237,-25.479999542236328,2.1700000762939453,4.199999809265137,79
17:11:52:513,0.07646369934082031,-0.20757651329040527,0.6061998605728149,-9.475577354431152,-1.9262222051620483,-0.3661018908023834,-6.019999980926514,8.609999656677246,6.789999961853027,79
17:11:52:554,0.2047405242919922,0.16319119930267334,0.9558674097061157,-9.29611587524414,-1.514656662940979,0.2225324809551239,15.190000534057617,15.260000228881836,7.139999866485596,79
17:11:52:593,0.06999397277832031,0.31432175636291504,0.6536669731140137,-9.413363456726074,-1.2849457263946533,0.08374878764152527,19.389999389648438,19.809999465942383,3.5,79
17:11:52:635,-0.3689708709716797,0.2935711145401001,-0.04751533269882202,-9.944571495056152,-1.2323036193847656,-0.6293123364448547,15.260000228881836,1.6100000143051147,3.9200000762939453,79
17:11:52:673,-0.036751747131347656,0.39756882190704346,-0.13181090354919434,-9.621540069580078,-1.0289137363433838,-0.7465606331825256,7.909999847412109,-6.019999980926514,3.2200000286102295,79
17:11:52:718,0.03759765625,-0.02459716796875,-0.3906732201576233,-9.53779125213623,-1.4572290182113647,-1.1030912399291992,-7.420000076293945,-8.819999694824219,-0.07000000029802322,79
17:11:52:755,0.3976154327392578,0.03392148017883301,-0.21491140127182007,-9.078369140625,-1.3902300596237183,-0.9810572862625122,-24.360000610351562,-20.579999923706055,0.9800000190734863,79
17:11:52:793,-0.13367271423339844,0.009908914566040039,-1.3434549570083618,-9.643074989318848,-1.411765456199646,-2.445464611053467,-14.770000457763672,-41.09000015258789,2.309999942779541,79
17:11:52:840,0.2242279052734375,-0.6256921291351318,1.1802319288253784,-9.229117393493652,-2.203789472579956,0.3732803165912628,-31.989999771118164,-103.11000061035156,3.9200000762939453,79
17:11:52:873,0.5469207763671875,0.2192072868347168,2.0467982292175293,-8.769694328308105,-1.3040882349014282,1.7515461444854736,-44.59000015258789,-62.51000213623047,-0.07000000029802322,79
17:11:52:925,0.20591068267822266,0.8032424449920654,1.8480069637298584,-9.059226989746094,-0.519242525100708,2.014756679534912,-38.36000061035156,-21.139999389648438,-8.609999656677246,79
17:11:52:963,-0.2525796890258789,0.32674145698547363,1.8421144485473633,-9.580862045288086,-0.9140582084655762,2.469392776489258,-15.190000534057617,13.930000305175781,-3.640000104904175,79
17:11:53:0,-0.44708824157714844,0.3456205129623413,1.5004911422729492,-9.8871431350708,-0.8087739944458008,2.502892255783081,-29.1200008392334,16.309999465942383,7.490000247955322,79
17:11:53:39,-0.26195716857910156,0.2535252571105957,0.9113401174545288,-9.767501831054688,-0.8374879360198975,2.1415762901306152,-24.219999313354492,23.100000381469727,14.630000114440918,79
17:11:53:78,0.2766561508178711,-0.0039196014404296875,0.5453033447265625,-9.159724235534668,-1.0959126949310303,1.9118653535842896,-29.469999313354492,32.34000015258789,10.710000038146973,79
17:11:53:120,-0.14621353149414062,-0.6999256610870361,-1.2215049266815186,-9.619147300720215,-1.9669002294540405,-0.16031910479068756,-31.360000610351562,46.130001068115234,5.320000171661377,79
17:11:53:158,-0.1552562713623047,-0.6556534767150879,-0.7685497999191284,-9.667003631591797,-2.0865414142608643,0.10049854964017868,-16.309999465942383,48.720001220703125,5.320000171661377,79
17:11:53:200,-0.32903099060058594,-0.3464968204498291,-1.2618590593338013,-9.923035621643066,-1.864008903503418,-0.7082754969596863,-9.449999809265137,42.209999084472656,0.699999988079071,79
17:11:53:239,-0.2613096237182617,-0.5337079763412476,-1.361710786819458,-9.920641899108887,-2.1846470832824707,-1.1485549211502075,3.5,25.1299991607666,2.309999942779541,79
17:11:53:278,-0.1822490692138672,-0.252768874168396,-0.6088897585868835,-9.8871431350708,-1.9669002294540405,-0.5479563474655151,11.130000114440918,10.710000038146973,-0.07000000029802322,79
17:11:53:320,-0.017543792724609375,-0.1773296594619751,-0.7876502871513367,-9.726823806762695,-1.935793399810791,-0.9236294627189636,5.599999904632568,-1.8200000524520874,-5.599999904632568,79
17:11:53:359,0.1333627700805664,0.15293192863464355,-0.348724365234375,-9.542576789855957,-1.5672988891601562,-0.5718846321105957,7.699999809265137,-8.539999961853027,-13.230000495910645,79
17:11:53:399,0.15454673767089844,-0.06142318248748779,-0.6273744702339172,-9.482755661010742,-1.797009825706482,-1.007378339767456,3.569999933242798,-14.279999732971191,-16.729999542236328,79
17:11:53:439,0.09875202178955078,-0.03382456302642822,-0.3487589359283447,-9.513862609863281,-1.777867317199707,-0.8159525394439697,13.720000267028809,-14.279999732971191,-14.84000015258789,79
17:11:53:478,0.20725631713867188,0.13948094844818115,-0.16415166854858398,-9.353544235229492,-1.56969153881073,-0.672383189201355,19.600000381469727,-11.40999984741211,-10.779999732971191,79
17:11:53:520,0.016492843627929688,0.044585585594177246,-0.3361469507217407,-9.540184020996094,-1.6534404754638672,-0.9284151792526245,21.84000015258789,-6.650000095367432,-7.769999980926514,79
17:11:53:558,0.13953590393066406,0.17349517345428467,-0.018149733543395996,-9.382257461547852,-1.4811571836471558,-0.6149553656578064,21.90999984741211,-3.2899999618530273,-5.320000171661377,79
17:11:53:600,0.09440040588378906,0.19239544868469238,-0.15426069498062134,-9.403792381286621,-1.4141581058502197,-0.7896314859390259,21.139999389648438,1.6100000143051147,-3.2899999618530273,79
17:11:53:640,0.02574920654296875,0.10988843441009521,0.05270320177078247,-9.4660062789917,-1.4691929817199707,-0.5694918036460876,19.530000686645508,0.21000000834465027,-0.6299999952316284,79
17:11:53:680,-0.0023717880249023438,0.07451069355010986,0.038334012031555176,-9.494720458984375,-1.4859429597854614,-0.5742774605751038,18.479999542236328,2.0999999046325684,1.6800000667572021,79
17:11:53:719,-0.030611038208007812,0.06917989253997803,0.0421527624130249,-9.530611991882324,-1.4739787578582764,-0.5599204897880554,15.890000343322754,3.2899999618530273,1.399999976158142,79
17:11:53:760,-0.08765983581542969,0.049601197242736816,0.056693315505981445,-9.609575271606445,-1.4811571836471558,-0.5312066078186035,13.230000495910645,5.599999904632568,1.8200000524520874,79
17:11:53:799,0.03515625,0.06456637382507324,0.1410675346851349,-9.477970123291016,-1.4500504732131958,-0.41156551241874695,10.149999618530273,3.2200000286102295,2.799999952316284,79
17:11:53:839,0.0357818603515625,0.06122434139251709,0.18559584021568298,-9.468399047851562,-1.4380863904953003,-0.3206382095813751,6.650000095367432,3.1500000953674316,2.940000057220459,79
17:11:53:880,-0.0938873291015625,0.03749394416809082,0.17719051241874695,-9.621540069580078,-1.4524433612823486,-0.2847459018230438,1.6800000667572021,2.309999942779541,2.380000114440918,79
17:11:53:921,-0.08085250854492188,-0.017861247062683105,0.15515223145484924,-9.628718376159668,-1.5122638940811157,-0.2679961323738098,-1.1200000047683716,1.75,2.940000057220459,79
17:11:53:960,0.008059501647949219,-0.021946072578430176,0.1930350810289383,-9.53779125213623,-1.521835207939148,-0.18185453116893768,-2.940000057220459,2.1700000762939453,3.7799999713897705,79
17:11:54:2,0.1308746337890625,-0.1247553825378418,0.2577980160713196,-9.382257461547852,-1.65583336353302,-0.0526420958340168,-1.399999976158142,4.340000152587891,5.880000114440918,78
17:11:54:41,0.01855754852294922,-0.05386197566986084,0.14306789636611938,-9.489934921264648,-1.5984054803848267,-0.13160523772239685,-0.2800000011920929,4.409999847412109,6.510000228881836,78
17:11:54:80,0.18712902069091797,0.06410872936248779,0.19868166744709015,-9.274580955505371,-1.4644075632095337,-0.0263210479170084,-2.870000123977661,3.0799999237060547,4.619999885559082,78
17:11:54:121,0.1535320281982422,-0.11142492294311523,0.07663223147392273,-9.269794464111328,-1.6677974462509155,-0.12921242415905,-7,4.269999980926514,1.8899999856948853,78
17:11:54:161,0.07305431365966797,-0.161881685256958,-0.0669495016336441,-9.332008361816406,-1.758724570274353,-0.28953152894973755,-6.720000267028809,4.550000190734863,0.14000000059604645,78
17:11:54:200,0.043129920959472656,-0.2979600429534912,-0.20670023560523987,-9.351150512695312,-1.9692929983139038,-0.4809573292732239,-5.599999904632568,4.550000190734863,-2.7300000190734863,78
17:11:54:240,-0.01526641845703125,-0.3915085792541504,-0.18450278043746948,-9.413363456726074,-2.1607186794281006,-0.5048855543136597,0.49000000953674316,5.880000114440918,-5.039999961853027,78
17:11:54:280,0.03564262390136719,-0.24429357051849365,-0.2184298038482666,-9.353544235229492,-2.0745770931243896,-0.5934200286865234,8.539999961853027,8.75,-4.619999885559082,78
17:11:54:320,-0.18396854400634766,-0.2777482271194458,-0.19771495461463928,-9.619147300720215,-2.177468776702881,-0.6221339106559753,18.549999237060547,10.989999771118164,2.240000009536743,78
17:11:54:360,-0.7003955841064453,-0.2241126298904419,-0.487424373626709,-10.310672760009766,-2.179861307144165,-1.0336993932724,32.20000076293945,11.270000457763672,12.390000343322754,78
17:11:54:400,-0.46651744842529297,-0.14674770832061768,-0.23679882287979126,-10.193424224853516,-2.139183282852173,-0.8422735333442688,43.470001220703125,12.600000381469727,19.530000686645508,78
17:11:54:441,-0.2373027801513672,-0.17482614517211914,-0.0037560462951660156,-10.023534774780273,-2.210968255996704,-0.6101697683334351,43.88999938964844,14.489999771118164,19.809999465942383,78
17:11:54:479,0.22746658325195312,-0.22791671752929688,0.11567917466163635,-9.501898765563965,-2.321038007736206,-0.4618147313594818,44.939998626708984,15.119999885559082,16.309999465942383,78
17:11:54:521,0.12645912170410156,-0.09236311912536621,-0.14099621772766113,-9.571290969848633,-2.2085752487182617,-0.7537391781806946,46.689998626708984,10.430000305175781,11.130000114440918,78
17:11:54:559,0.009283065795898438,-0.06240510940551758,-0.6641033887863159,-9.686145782470703,-2.194218397140503,-1.442872166633606,43.61000061035156,-2.1700000762939453,7.630000114440918,78
17:11:54:600,0.0935678482055664,0.0017609596252441406,-0.30157166719436646,-9.578469276428223,-2.1296122074127197,-1.155733346939087,38.849998474121094,-8.75,6.510000228881836,78
17:11:54:641,0.20502376556396484,-0.052190303802490234,-0.20680058002471924,-9.415757179260254,-2.196611166000366,-1.112662434577942,33.25,-6.929999828338623,7.769999980926514,78
17:11:54:681,0.40712928771972656,-0.04749488830566406,-0.28795307874679565,-9.111868858337402,-2.203789472579956,-1.2658032178878784,27.719999313354492,-5.740000247955322,5.949999809265137,78
17:11:54:720,0.06536483764648438,-0.007367849349975586,-0.3835030794143677,-9.437292098999023,-2.1655044555664062,-1.4572290182113647,21.280000686645508,-7.559999942779541,1.0499999523162842,78
17:11:54:761,0.02357769012451172,-0.1016073226928711,-0.3144594430923462,-9.473184585571289,-2.2851457595825195,-1.4668002128601074,23.520000457763672,-8.819999694824219,-0.9800000190734863,78
17:11:54:800,0.2926006317138672,0.1350255012512207,-0.02951359748840332,-9.131011009216309,-2.014756679534912,-1.1892328262329102,24.219999313354492,-7.630000114440918,-1.6800000667572021,78
17:11:54:842,0.37764930725097656,0.07356381416320801,-0.023610830307006836,-8.951549530029297,-2.0578274726867676,-1.1892328262329102,20.299999237060547,-4.340000152587891,-3.7799999713897705,78
17:11:54:880,0.18726348876953125,0.16796374320983887,-0.05143094062805176,-9.09511947631836,-1.9214365482330322,-1.2299107313156128,18.829999923706055,-3.990000009536743,-2.0299999713897705,78
17:11:54:922,-0.22538280487060547,-0.011112689971923828,-0.38188278675079346,-9.564111709594727,-2.1032910346984863,-1.65583336353302,11.199999809265137,-3.640000104904175,1.8200000524520874,78
17:11:54:960,-0.8445539474487305,-0.2558293342590332,-0.548616886138916,-10.394421577453613,-2.4119651317596436,-1.9597216844558716,12.390000343322754,0.49000000953674316,3.569999933242798,78
17:11:55:1,-0.8498401641845703,-0.2391202449798584,-0.19769692420959473,-10.612168312072754,-2.455036163330078,-1.6582260131835938,22.610000610351562,10.359999656677246,2.870000123977661,77
17:11:55:41,0.4610252380371094,0.25281190872192383,0.7511150240898132,-9.186046600341797,-1.8999011516571045,-0.5216353535652161,30.100000381469727,22.96000099182129,-6.159999847412109,77
17:11:55:81,0.27693653106689453,0.1295076608657837,0.5338929891586304,-9.300901412963867,-1.9908283948898315,-0.605384111404419,37.59000015258789,27.579999923706055,-10.779999732971191,77
17:11:55:121,-0.15747356414794922,0.2969461679458618,0.5075132846832275,-9.774680137634277,-1.7491532564163208,-0.5048855543136597,64.81999969482422,19.600000381469727,-6.090000152587891,77
17:11:55:161,-0.3748321533203125,0.4959818124771118,0.3600684404373169,-10.085746765136719,-1.4261221885681152,-0.5623133182525635,83.86000061035156,3.009999990463257,-13.579999923706055,77
17:11:55:200,-0.5487203598022461,1.0974037647247314,0.8087329268455505,-10.396815299987793,-0.5503491759300232,0.08853443711996078,92.19000244140625,-5.25,-23.309999465942383,77
17:11:55:242,-0.09440898895263672,1.3124595880508423,0.7886414527893066,-9.966106414794922,-0.007178467698395252,0.26560330390930176,100.23999786376953,-9.100000381469727,-35.349998474121094,77
17:11:55:280,0.1388692855834961,1.2701072692871094,0.6500557661056519,-9.698110580444336,0.2679961323738098,0.28953152894973755,83.79000091552734,-18.549999237060547,-33.31999969482422,77
17:11:55:322,0.10726737976074219,1.3587379455566406,0.8531255722045898,-9.702895164489746,0.696311354637146,0.705882728099823,79.16999816894531,-24.5,-29.049999237060547,77
17:11:55:362,-0.10752677917480469,1.391357421875,0.2326497733592987,-9.944571495056152,1.0767701864242554,0.14356936514377594,40.11000061035156,-24.56999969482422,-18.059999465942383,77
17:11:55:401,0.20686054229736328,0.8125473856925964,0.48091554641723633,-9.578469276428223,0.7010970115661621,0.5120640397071838,-2.0999999046325684,-23.520000457763672,-5.53000020980835,77
17:11:55:441,0.5885400772094727,0.4126698970794678,0.3407045006752014,-9.049654960632324,0.4043869972229004,0.4570291042327881,-28.139999389648438,-10.220000267028809,11.829999923706055,77
17:11:55:481,0.4689178466796875,-0.08525806665420532,0.23427844047546387,-9.052047729492188,-0.11485548317432404,0.4091726541519165,-42.42000198364258,-0.8400000333786011,24.920000076293945,77
17:11:55:521,0.5148754119873047,-0.26728931069374084,0.06873877346515656,-8.877371788024902,-0.36370906233787537,0.26081767678260803,-52.150001525878906,10.989999771118164,36.33000183105469,77
17:11:55:561,0.12667560577392578,-0.4224855899810791,-0.11154945194721222,-9.233902931213379,-0.6245267391204834,0.0526420958340168,-53.54999923706055,16.030000686645508,41.09000015258789,77
17:11:55:601,-0.07094287872314453,-0.6672407984733582,-0.24429446458816528,-9.449256896972656,-1.0360921621322632,-0.14117653667926788,-51.939998626708984,19.530000686645508,46.130001068115234,77
17:11:55:643,-0.18692398071289062,-0.5299640893936157,0.04384668916463852,-9.611968994140625,-1.031306505203247,0.1579262912273407,-40.529998779296875,25.270000457763672,45.709999084472656,77
17:11:55:684,-0.030855178833007812,-0.5771118998527527,-0.09700645506381989,-9.463613510131836,-1.2227323055267334,-0.007178467698395252,-44.59000015258789,25.6200008392334,38.5,77
17:11:55:721,0.08442878723144531,-0.42723286151885986,0.1387059986591339,-9.327221870422363,-1.179661512374878,0.2632104754447937,-42.77000045776367,27.020000457763672,34.15999984741211,77
17:11:55:762,-0.14302635192871094,-0.5619260668754578,-0.11300338804721832,-9.590433120727539,-1.4548362493515015,-0.016749758273363113,-43.04999923706055,26.389999389648438,31.219999313354492,77
17:11:55:800,-0.13356399536132812,-0.489740252494812,0.07422348856925964,-9.614361763000488,-1.5050854682922363,0.18903298676013947,-36.2599983215332,24.149999618530273,30.940000534057617,77
17:11:55:842,-0.06090831756591797,-0.4932478666305542,0.10723523795604706,-9.556933403015137,-1.6319050788879395,0.24885354936122894,-35.97999954223633,23.520000457763672,22.399999618530273,77
17:11:55:881,-0.19803810119628906,-0.3735414743423462,-0.00226767361164093,-9.743573188781738,-1.6055840253829956,0.13878372311592102,-40.529998779296875,16.170000076293945,8.119999885559082,77
17:11:55:922,-0.7499370574951172,-0.421345591545105,-0.6048054099082947,-10.482955932617188,-1.758724570274353,-0.6149553656578064,-46.47999954223633,9.170000076293945,-8.609999656677246,77
17:11:55:962,-2.3993520736694336,-0.5055311918258667,-1.2016911506652832,-12.732209205627441,-1.9692929983139038,-1.5122638940811157,-45.150001525878906,-6.929999828338623,-19.040000915527344,77
17:11:56:1,-1.0618934631347656,-0.5709655284881592,-0.9192392230033875,-11.660223960876465,-2.177468776702881,-1.459621787071228,-32.689998626708984,-15.119999885559082,-30.520000457763672,77
17:11:56:42,0.5134372711181641,-0.1696336269378662,-0.15345698595046997,-9.956534385681152,-1.8185452222824097,-0.7322037816047668,-12.180000305175781,-13.510000228881836,-45.5,77
17:11:56:81,0.8739995956420898,0.18780279159545898,0.07057452201843262,-9.377471923828125,-1.4141581058502197,-0.4905286431312561,6.090000152587891,-11.130000114440918,-55.29999923706055,77
17:11:56:122,0.43694591522216797,0.17321324348449707,-0.35510581731796265,-9.705288887023926,-1.3854442834854126,-1.0049854516983032,16.170000076293945,-17.290000915527344,-61.459999084472656,77
17:11:56:161,-0.07349395751953125,0.3625386953353882,-0.9674748182296753,-10.234102249145508,-1.105484127998352,-1.8592231273651123,24.989999771118164,-40.040000915527344,-59.92000198364258,77
17:11:56:202,0.14411640167236328,0.2881166934967041,-0.6686956882476807,-9.980463027954102,-1.1078768968582153,-1.727617859840393,31.290000915527344,-56.42000198364258,-59.220001220703125,77
17:11:56:242,0.5440864562988281,0.7090579271316528,0.004864215850830078,-9.44447135925293,-0.5096712112426758,-1.0528419017791748,12.319999694824219,-51.869998931884766,-58.79999923706055,77
17:11:56:282,0.27830028533935547,0.4275054931640625,0.09960424900054932,-9.640682220458984,-0.6843472719192505,-0.9332008361816406,-11.480000495910645,-34.86000061035156,-53.689998626708984,77
17:11:56:322,0.32983875274658203,-0.025533199310302734,-0.3739957809448242,-9.506684303283691,-1.1437692642211914,-1.5002998113632202,-8.050000190734863,-26.880001068115234,-40.599998474121094,77
17:11:56:362,0.46486854553222656,0.3873103857040405,-0.21305489540100098,-9.255437850952148,-0.6340980529785156,-1.392622709274292,3.8499999046325684,-21.84000015258789,-19.46000099182129,77
17:11:56:401,0.6571187973022461,0.5414735078811646,0.35980552434921265,-8.898907661437988,-0.3445664942264557,-0.729810893535614,-0.699999988079071,-9.800000190734863,1.3300000429153442,77
17:11:56:443,0.8836612701416016,0.37383681535720825,0.7204667329788208,-8.451449394226074,-0.41874396800994873,-0.18903298676013947,-21.700000762939453,9.9399995803833,23.030000686645508,77
17:11:56:481,0.12499427795410156,-0.0033832788467407227,0.29880595207214355,-9.17886734008789,-0.7968099117279053,-0.5359922647476196,-40.7400016784668,23.309999465942383,44.939998626708984,77
17:11:56:523,-0.2483997344970703,-0.29750239849090576,-0.028951406478881836,-9.614361763000488,-1.1653046607971191,-0.8709874749183655,-51.029998779296875,20.860000610351562,57.540000915527344,77
17:11:56:562,-0.4092874526977539,-0.6170248985290527,0.0017243027687072754,-9.877571105957031,-1.6390833854675293,-0.8398807048797607,-65.94000244140625,16.239999771118164,66.5,77
17:11:56:602,-0.3638019561767578,-0.6199610233306885,0.003293633460998535,-9.923035621643066,-1.797009825706482,-0.8374879360198975,-79.30999755859375,18.34000015258789,67.83000183105469,77
17:11:56:642,-0.23552799224853516,-0.9707047939300537,0.10409057140350342,-9.853643417358398,-2.390429735183716,-0.7106683850288391,-83.0199966430664,22.81999969482422,67.19999694824219,77
17:11:56:682,-0.01613903045654297,-1.2551285028457642,0.03924459218978882,-9.638289451599121,-2.988635540008545,-0.7657032012939453,-60.619998931884766,23.729999542236328,58.65999984741211,77
17:11:56:722,0.19765663146972656,-1.2050998210906982,-0.0011467933654785156,-9.375079154968262,-3.239881753921509,-0.8063812851905823,-41.790000915527344,15.260000228881836,47.25,77
17:11:56:763,-0.07158565521240234,-0.7152266502380371,0.006739675998687744,-9.66221809387207,-2.9288151264190674,-0.7968099117279053,-21.280000686645508,5.670000076293945,33.599998474121094,77
17:11:56:802,-0.46883392333984375,-0.5664384365081787,-0.3793741464614868,-10.176674842834473,-2.9216365814208984,-1.277767300605774,-28.280000686645508,-2.309999942779541,17.219999313354492,77
17:11:56:843,-1.0259151458740234,-0.487607479095459,-0.5121533870697021,-10.990234375,-2.964707374572754,-1.5385849475860596,-25.34000015258789,-6.369999885559082,3.5,77
17:11:56:882,0.628361701965332,0.16504907608032227,0.3636375665664673,-9.17886734008789,-2.2707886695861816,-0.5718846321105957,-12.180000305175781,-0.49000000953674316,-13.859999656677246,77
17:11:56:923,0.7438859939575195,0.4823484420776367,0.7541605234146118,-8.877371788024902,-1.832902193069458,0.007178467698395252,-2.450000047683716,4.760000228881836,-25.1299991607666,77
17:11:56:962,0.2601137161254883,0.6538749933242798,0.5803573131561279,-9.29611587524414,-1.497907042503357,-0.02153540588915348,15.609999656677246,4.96999979019165,-26.950000762939453,77
17:11:57:3,-0.23027420043945312,0.8868091106414795,0.2192608118057251,-9.844072341918945,-1.0432707071304321,-0.3278167247772217,14.069999694824219,-12.529999732971191,-26.25,77
17:11:57:44,-0.4158439636230469,1.0061572790145874,0.3515204191207886,-10.1336030960083,-0.672383189201355,-0.10767702758312225,3.430000066757202,-22.610000610351562,-30.940000534057617,77
17:11:57:81,-0.32884788513183594,0.7608979344367981,0.4726421535015106,-10.12881851196289,-0.7274181246757507,0.13160523772239685,-3.569999933242798,-19.950000762939453,-33.95000076293945,77
17:11:57:126,0.014490127563476562,0.5934043526649475,0.4374557137489319,-9.781858444213867,-0.7465606331825256,0.20578275620937347,7.909999847412109,-15.960000038146973,-30.239999771118164,77
17:11:57:162,-0.1855764389038086,0.8939459323883057,0.45524874329566956,-10.028319358825684,-0.2225324809551239,0.33738797903060913,18.760000228881836,-18.6200008392334,-23.729999542236328,77
17:11:57:205,-0.34180164337158203,0.8682973384857178,0.27805739641189575,-10.269994735717773,-0.031106693670153618,0.22971096634864807,13.789999961853027,-24.71000099182129,-17.079999923706055,77
17:11:57:242,0.17832374572753906,0.6793237924575806,0.5363842844963074,-9.705288887023926,-0.05024927482008934,0.6221339106559753,0.9100000262260437,-26.670000076293945,-12.390000343322754,77
17:11:57:285,-0.23253440856933594,-0.4730120301246643,0.9918991923332214,-10.174281120300293,-1.3208380937576294,1.325623631477356,-20.649999618530273,-14.84000015258789,-18.059999465942383,77
17:11:57:322,-0.3353404998779297,-4.164812088012695,0.8796611428260803,-10.360921859741211,-6.0538411140441895,1.4333008527755737,-46.060001373291016,-10.569999694824219,-69.93000030517578,77
17:11:57:397,0.7003421783447266,-7.254164695739746,0.2825919985771179,-9.150154113769531,-10.956734657287598,0.906879723072052,-11.34000015258789,-5.880000114440918,-135.24000549316406,77
17:11:57:418,2.4190187454223633,-7.713760852813721,-1.7743260860443115,-6.826723098754883,-13.344771385192871,-1.5936198234558105,107.94000244140625,26.040000915527344,-157.99000549316406,77
17:11:57:437,1.3934803009033203,-6.45814847946167,-1.8578259944915771,-7.503891944885254,-13.703696250915527,-2.1415762901306152,286.2300109863281,103.66999816894531,-168.55999755859375,77
17:11:57:479,-0.5927333831787109,0.9495368003845215,-4.187278747558594,-9.638289451599121,-6.058626651763916,-5.517848491668701,279.0899963378906,146.64999389648438,-156.72999572753906,77
17:11:57:523,-0.09707832336425781,3.42427659034729,-3.6312191486358643,-9.166903495788574,-2.7278177738189697,-5.869593620300293,233.94000244140625,177.72999572753906,-145.8800048828125,77
17:11:57:563,-0.5925989151000977,5.007817268371582,-0.8471481800079346,-9.81057357788086,0.10767702758312225,-3.297309637069702,161.6300048828125,166.60000610351562,-128.24000549316406,77
17:11:57:602,-1.7164325714111328,4.503960609436035,1.136998176574707,-11.36351490020752,0.729810893535614,-1.0289137363433838,130.89999389648438,147.27999877929688,-67.76000213623047,77
17:11:57:645,-0.795039176940918,7.025861740112305,1.5700175762176514,-10.640881538391113,5.008177757263184,-0.20338992774486542,-13.020000457763672,53.900001525878906,-31.010000228881836,77
17:11:57:682,0.3919239044189453,-2.5551071166992188,-0.9300684928894043,-9.355937004089355,-5.2115678787231445,-2.935993194580078,-163.24000549316406,-1.8200000524520874,-41.09000015258789,77
17:11:57:739,2.183770179748535,-3.634833812713623,0.47341322898864746,-7.018148422241211,-7.200003147125244,-1.4141581058502197,-47.38999938964844,-22.049999237060547,-11.970000267028809,77
17:11:57:763,2.819000244140625,-4.0717363357543945,0.9281225800514221,-5.678168296813965,-8.654839515686035,-0.7274181246757507,-16.8700008392334,-42.630001068115234,-8.609999656677246,77
17:11:57:802,2.0063467025756836,-1.082791805267334,2.160963296890259,-5.989234924316406,-5.936593055725098,1.0456634759902954,-13.930000305175781,-42.13999938964844,-6.440000057220459,77
17:11:57:845,1.836702823638916,-1.5496230125427246,1.7708842754364014,-5.699703216552734,-6.790830135345459,1.098305583000183,-28,-38.63999938964844,2.1700000762939453,77
17:11:57:882,1.6110177040100098,-1.0923008918762207,0.4691496789455414,-5.522634029388428,-6.606583118438721,-0.08614162355661392,-25.1299991607666,-28.90999984741211,10.779999732971191,77
17:11:57:925,0.6245660781860352,-1.2260642051696777,0.28534960746765137,-6.3529438972473145,-7.046862602233887,-0.1986042857170105,-22.610000610351562,-19.950000762939453,22.68000030517578,77
17:11:57:963,0.12828683853149414,-0.12134933471679688,0.5651891231536865,-6.8171515464782715,-5.972485065460205,0.2225324809551239,-1.9600000381469727,-36.33000183105469,53.54999923706055,77
17:11:58:4,0.24045610427856445,1.562582015991211,0.3908950686454773,-6.64486837387085,-3.8979082107543945,0.1459621787071228,4.619999885559082,-47.459999084472656,73.43000030517578,77
17:11:58:43,-0.7283935546875,1.3764066696166992,0.6745108366012573,-7.795816421508789,-3.7399816513061523,0.5982056856155396,-39.970001220703125,-56.70000076293945,95.4800033569336,77
17:11:58:83,-1.222076416015625,1.2083234786987305,0.35009709000587463,-8.59501838684082,-3.6059837341308594,0.3613162040710449,-26.739999771118164,-53.34000015258789,122.98999786376953,77
17:11:58:124,-0.8130350112915039,2.0903284549713135,-1.155616044998169,-8.389235496520996,-2.2013967037200928,-1.4333008527755737,-19.739999771118164,-48.15999984741211,142.1699981689453,77
17:11:58:163,-1.5271592140197754,1.9019737243652344,-1.808880090713501,-9.485149383544922,-1.9142580032348633,-2.538784980773926,-97.6500015258789,-53.54999923706055,143.14999389648438,77
17:11:58:203,-2.5521364212036133,1.6019779443740845,-1.0010817050933838,-11.148160934448242,-1.813759446144104,-1.9812570810317993,-147.6999969482422,-61.95000076293945,140,77
17:11:58:246,-2.4245615005493164,0.7245333194732666,-0.6362392902374268,-11.626726150512695,-2.51007080078125,-1.7754744291305542,-195.50999450683594,-47.11000061035156,109.69000244140625,77
17:11:58:283,-1.9090204238891602,-0.22819042205810547,0.1341993808746338,-11.58843994140625,-3.5198421478271484,-0.97148597240448,-204.88999938964844,-29.399999618530273,88.34000396728516,77
17:11:58:325,-0.9893102645874023,-0.6285743713378906,-0.1548938751220703,-10.916057586669922,-4.077369689941406,-1.2993026971817017,-161,-9.9399995803833,62.15999984741211,77
17:11:58:363,-0.2745981216430664,-0.5698585510253906,0.44270533323287964,-10.269994735717773,-4.161118507385254,-0.5910272002220154,-113.33000183105469,-15.609999656677246,54.040000915527344,77
17:11:58:404,0.04448890686035156,0.005449533462524414,0.5704754590988159,-9.93978500366211,-3.5844480991363525,-0.3206382095813751,-98.06999969482422,-7.420000076293945,41.720001220703125,77
17:11:58:444,0.0336761474609375,0.14218616485595703,0.16541314125061035,-9.942178726196289,-3.4121649265289307,-0.6843472719192505,-90.16000366210938,-2.799999952316284,34.439998626708984,77
17:11:58:484,0.2815380096435547,0.2707180976867676,0.14190179109573364,-9.623932838439941,-3.2159535884857178,-0.672383189201355,-81.34000396728516,-2.309999942779541,25.479999542236328,77
17:11:58:523,0.47791194915771484,0.4041717052459717,0.21114861965179443,-9.308080673217773,-2.981456995010376,-0.5503491759300232,-73.22000122070312,-1.8899999856948853,17.639999389648438,77
17:11:58:565,0.4493293762207031,0.662161111831665,0.1402050256729126,-9.22433090209961,-2.557927370071411,-0.5862415432929993,-71.54000091552734,-0.2800000011920929,8.1899995803833,77
17:11:58:603,0.4494333267211914,0.5220718383789062,0.35336050391197205,-9.111868858337402,-2.5674986839294434,-0.2847459018230438,-70.27999877929688,0.7699999809265137,3.430000066757202,77
17:11:58:646,0.29254722595214844,0.5152847766876221,0.04149186611175537,-9.19561767578125,-2.445464611053467,-0.5862415432929993,-69.37000274658203,4.269999980926514,-0.7699999809265137,77
17:11:58:683,0.18235301971435547,0.36437129974365234,0.13656342029571533,-9.260223388671875,-2.5052852630615234,-0.4570291042327881,-58.79999923706055,4.199999809265137,-0.7699999809265137,77
17:11:58:725,0.04251289367675781,0.5441789627075195,0.45573145151138306,-9.389435768127441,-2.1894328594207764,-0.02392822504043579,-42.70000076293945,9.029999732971191,-1.8200000524520874,77
17:11:58:761,-0.03107452392578125,0.37217283248901367,0.3588424026966095,-9.470791816711426,-2.2683956623077393,-0.031106693670153618,-35.349998474121094,7.070000171661377,-0.699999988079071,77
17:11:58:805,-0.20671463012695312,0.41642212867736816,0.5186991691589355,-9.698110580444336,-2.1200408935546875,0.2584248483181,-21.350000381469727,7.699999809265137,-0.7699999809265137,77
17:11:58:844,-0.2132272720336914,0.34653759002685547,0.3288177251815796,-9.757929801940918,-2.1032910346984863,0.15074782073497772,-12.180000305175781,6.440000057220459,-2.0999999046325684,77
17:11:58:885,-0.20121097564697266,0.42079949378967285,0.4315088987350464,-9.796216011047363,-1.9238293170928955,0.3613162040710449,-2.309999942779541,6.440000057220459,-3.5,77
17:11:58:924,-0.14182567596435547,0.39023876190185547,0.14612428843975067,-9.772287368774414,-1.856830358505249,0.11246266961097717,-2.1700000762939453,1.75,-5.949999809265137,77
17:11:58:965,-0.06751823425292969,0.4021611213684082,0.08435703814029694,-9.714859962463379,-1.7443678379058838,0.07178468257188797,0.7699999809265137,-0.9800000190734863,-10.430000305175781,77
17:11:59:3,-0.02147197723388672,0.3657568693161011,0.036857496947050095,-9.674181938171387,-1.6893328428268433,0.03349951654672623,2.870000123977661,-5.110000133514404,-12.600000381469727,77
17:11:59:46,-0.13968944549560547,0.28112006187438965,-0.20788198709487915,-9.827322006225586,-1.703689694404602,-0.2632104754447937,0.9800000190734863,-7.699999809265137,-14.279999732971191,77
17:11:59:83,0.0777597427368164,0.20766770839691162,-0.13950598239898682,-9.590433120727539,-1.7252250909805298,-0.22971096634864807,6.720000267028809,-8.609999656677246,-13.510000228881836,77
17:11:59:126,0.12537860870361328,0.2503615617752075,-0.161375492811203,-9.511469841003418,-1.6199408769607544,-0.2919243574142456,7.630000114440918,-6.159999847412109,-13.510000228881836,77
17:11:59:164,0.16730213165283203,0.19454646110534668,-0.0506158173084259,-9.42772102355957,-1.6271194219589233,-0.19381862878799438,9.65999984741211,-5.389999866485596,-11.619999885559082,77
17:11:59:205,0.028557777404785156,0.2666642665863037,-0.07494929432868958,-9.559326171875,-1.4883356094360352,-0.23688943684101105,10.149999618530273,-4.340000152587891,-9.100000381469727,77
17:11:59:244,0.055388450622558594,0.23247385025024414,-0.0867590606212616,-9.518648147583008,-1.4644075632095337,-0.27038896083831787,8.75,-3.2200000286102295,-5.880000114440918,77
17:11:59:285,0.1381092071533203,0.2032073736190796,0.07607636600732803,-9.401400566101074,-1.442872166633606,-0.08853443711996078,7,-0.42000001668930054,-2.870000123977661,77
17:11:59:324,0.09134483337402344,0.1415092945098877,-0.04059460759162903,-9.425328254699707,-1.4691929817199707,-0.2153540551662445,4.550000190734863,1.1200000047683716,0.21000000834465027,77
17:11:59:366,-0.005408287048339844,0.10555028915405273,0.0345233678817749,-9.523433685302734,-1.4787644147872925,-0.13160523772239685,3.1500000953674316,2.870000123977661,3.2200000286102295,77
17:11:59:404,-0.00815582275390625,0.011698603630065918,0.025704428553581238,-9.528220176696777,-1.56969153881073,-0.1339980661869049,0.3499999940395355,3.2200000286102295,5.599999904632568,77
17:11:59:446,-0.04289531707763672,-0.0021268129348754883,0.06076297163963318,-9.573683738708496,-1.5840486288070679,-0.08374878764152527,-1.2599999904632568,4.199999809265137,6.230000019073486,77
17:11:59:484,0.0288543701171875,-0.08784306049346924,0.006496697664260864,-9.494720458984375,-1.6917256116867065,-0.13639087975025177,-2.240000009536743,3.9200000762939453,6.650000095367432,77
17:11:59:526,-0.028600692749023438,-0.06836020946502686,0.030082710087299347,-9.559326171875,-1.6893328428268433,-0.1052841916680336,-2.6600000858306885,2.6600000858306885,6.579999923706055,77
17:11:59:564,-0.1396503448486328,-0.14657235145568848,-0.04101860523223877,-9.705288887023926,-1.8041881322860718,-0.1866401582956314,-3.430000066757202,2.380000114440918,5.809999942779541,77
17:11:59:606,-0.023664474487304688,-0.11725783348083496,-0.030900627374649048,-9.595218658447266,-1.8041881322860718,-0.18424734473228455,-3.2200000286102295,1.8899999856948853,4.059999942779541,77
17:11:59:646,0.007867813110351562,-0.10529196262359619,0.00973615050315857,-9.561718940734863,-1.8185452222824097,-0.14117653667926788,-2.1700000762939453,1.4700000286102295,2.450000047683716,77
17:11:59:686,-0.02241992950439453,-0.051691293716430664,-0.03049623966217041,-9.597611427307129,-1.777867317199707,-0.18903298676013947,-2.309999942779541,0.9100000262260437,-1.2599999904632568,77
17:11:59:725,-0.004536628723144531,-0.02986741065979004,-0.0033401548862457275,-9.580862045288086,-1.7635102272033691,-0.1627119481563568,-1.75,-0.42000001668930054,-2.1700000762939453,77
17:11:59:766,-0.005543708801269531,0.02013397216796875,0.045184336602687836,-9.58325481414795,-1.7084753513336182,-0.10289137810468674,0.07000000029802322,-0.42000001668930054,-2.240000009536743,77
17:11:59:804,0.020450592041015625,0.09459173679351807,0.08591818064451218,-9.55214786529541,-1.6103696823120117,-0.0406779870390892,1.4700000286102295,0.2800000011920929,-2.450000047683716,77
17:11:59:846,0.0010461807250976562,0.06418788433074951,0.0017355158925056458,-9.571290969848633,-1.6247265338897705,-0.12442677468061447,2.0999999046325684,-0.49000000953674316,-2.6600000858306885,77
17:11:59:886,-0.029790878295898438,0.05900740623474121,-0.059867843985557556,-9.609575271606445,-1.6151552200317383,-0.20099709928035736,2.5199999809265137,-1.5399999618530273,-2.5899999141693115,77
17:11:59:926,-0.025747299194335938,0.11803340911865234,-0.024923190474510193,-9.611968994140625,-1.526620864868164,-0.17228324711322784,1.0499999523162842,-0.9100000262260437,-3.1500000953674316,77
17:11:59:965,0.04065895080566406,0.09634089469909668,-0.0007959604263305664,-9.535398483276367,-1.5242280960083008,-0.14835500717163086,0.2800000011920929,-1.2599999904632568,-2.0999999046325684,77
17:12:0:7,-0.021071434020996094,0.048358917236328125,0.00893452763557434,-9.602396965026855,-1.5601203441619873,-0.13639087975025177,-0.5600000023841858,-1.1200000047683716,-0.5600000023841858,77
17:12:0:45,0.04439830780029297,0.03103017807006836,-0.03879457712173462,-9.525827407836914,-1.56969153881073,-0.19381862878799438,-1.3300000429153442,-0.42000001668930054,0.2800000011920929,77
17:12:0:86,0.07571887969970703,-0.04983198642730713,-0.08463490009307861,-9.475577354431152,-1.6630116701126099,-0.26081767678260803,-2.1700000762939453,0.07000000029802322,1.6800000667572021,77
17:12:0:125,0.005061149597167969,-0.07240796089172363,-0.07536494731903076,-9.54496955871582,-1.703689694404602,-0.27038896083831787,-1.3300000429153442,0.21000000834465027,2.5199999809265137,77
17:12:0:167,-0.043807029724121094,-0.03495526313781738,-0.029663830995559692,-9.604789733886719,-1.674975872039795,-0.23210379481315613,-2.240000009536743,0.7699999809265137,2.0999999046325684,77
17:12:0:205,0.020467758178710938,-0.04710686206817627,-0.01798829436302185,-9.535398483276367,-1.6989041566848755,-0.22492533922195435,-1.5399999618530273,2.0299999713897705,1.4700000286102295,77
17:12:0:248,-0.012339591979980469,-0.030028462409973145,-0.07181838154792786,-9.571290969848633,-1.6893328428268433,-0.2967100143432617,-2.0299999713897705,1.0499999523162842,1.6800000667572021,77
17:12:0:285,0.05904197692871094,-0.06422209739685059,-0.045969158411026,-9.485149383544922,-1.7395820617675781,-0.28235307335853577,-1.75,1.8200000524520874,2.1700000762939453,77
17:12:0:327,0.02043437957763672,-0.05903458595275879,0.032137975096702576,-9.518648147583008,-1.7491532564163208,-0.19621144235134125,0.07000000029802322,2.799999952316284,1.5399999618530273,77
17:12:0:365,-0.0315093994140625,0.006371498107910156,0.00465354323387146,-9.578469276428223,-1.6821542978286743,-0.2225324809551239,0.14000000059604645,2.1700000762939453,1.1200000047683716,77
17:12:0:407,-0.027121543884277344,-0.059987545013427734,0.00180855393409729,-9.580862045288086,-1.7635102272033691,-0.22492533922195435,-0.9800000190734863,0.9100000262260437,-0.07000000029802322,77
17:12:0:446,0.03381633758544922,0.011351823806762695,0.06461736559867859,-9.511469841003418,-1.6893328428268433,-0.1459621787071228,0.8400000333786011,1.190000057220459,-0.8400000333786011,77
17:12:0:487,-0.06100273132324219,0.08756613731384277,0.030637040734291077,-9.621540069580078,-1.5912269353866577,-0.17228324711322784,0.2800000011920929,0.42000001668930054,-1.1200000047683716,77
17:12:0:526,-0.006688117980957031,0.03559613227844238,0.045566484332084656,-9.568897247314453,-1.6342979669570923,-0.1459621787071228,0.699999988079071,-0.5600000023841858,-0.2800000011920929,77
17:12:0:588,0.05207633972167969,-0.01363670825958252,0.036453187465667725,-9.497113227844238,-1.6869399547576904,-0.1459621787071228,1.3300000429153442,-0.07000000029802322,-0.2800000011920929,77
17:12:0:601,0.0014619827270507812,0.061832547187805176,-0.04740777611732483,-9.547362327575684,-1.5960125923156738,-0.24167509377002716,0.9800000190734863,-0.7699999809265137,0.07000000029802322,77
17:12:0:646,0.029883384704589844,-0.007961869239807129,-0.0685543417930603,-9.511469841003418,-1.6677974462509155,-0.2799602448940277,0.14000000059604645,-1.3300000429153442,-0.07000000029802322,77
17:12:0:687,-0.0009784698486328125,0.005116105079650879,-0.058671995997428894,-9.542576789855957,-1.6534404754638672,-0.2847459018230438,0.42000001668930054,-0.699999988079071,-0.21000000834465027,77
17:12:0:726,0.018360137939453125,0.01366424560546875,-0.02970924973487854,-9.518648147583008,-1.6414762735366821,-0.2632104754447937,-0.49000000953674316,-0.07000000029802322,-0.8400000333786011,77
17:12:0:766,0.030002593994140625,-0.006296992301940918,-0.09842345118522644,-9.499505043029785,-1.6630116701126099,-0.3565305471420288,-1.2599999904632568,0.07000000029802322,-0.9100000262260437,77
17:12:0:807,0.012516021728515625,-0.01843738555908203,-0.04428213834762573,-9.513862609863281,-1.6797614097595215,-0.31345975399017334,-0.7699999809265137,0.7699999809265137,-0.3499999940395355,77
17:12:0:847,-0.011044502258300781,0.021620869636535645,0.022002026438713074,-9.540184020996094,-1.6342979669570923,-0.24167509377002716,-1.75,1.5399999618530273,-0.07000000029802322,77
17:12:0:887,-0.0011777877807617188,-0.03630256652832031,-0.045568883419036865,-9.530611991882324,-1.7012970447540283,-0.3206382095813751,-1.0499999523162842,1.75,0.699999988079071,77
17:12:0:927,-0.02391338348388672,0.022643089294433594,0.026715382933616638,-9.559326171875,-1.636690616607666,-0.24167509377002716,-0.9800000190734863,1.399999976158142,0.9800000190734863,77
17:12:0:968,-0.0497589111328125,-0.04505598545074463,-0.003513038158416748,-9.597611427307129,-1.7156537771224976,-0.27278175950050354,-1.0499999523162842,0.7699999809265137,0.9100000262260437,77
17:12:1:4,-0.03023529052734375,0.01946866512298584,0.041217491030693054,-9.585646629333496,-1.6462620496749878,-0.21774686872959137,0.42000001668930054,1.3300000429153442,0.9800000190734863,77
17:12:1:47,-0.04141807556152344,-0.016967415809631348,-0.005311161279678345,-9.607183456420898,-1.6869399547576904,-0.26560330390930176,-1.1200000047683716,0.5600000023841858,0.7699999809265137,77
17:12:1:84,0.03386497497558594,-0.02505958080291748,0.060835838317871094,-9.523433685302734,-1.7012970447540283,-0.18424734473228455,-0.3499999940395355,0.49000000953674316,1.6800000667572021,77
17:12:1:127,-0.022678375244140625,-0.04493296146392822,-0.07767236232757568,-9.585646629333496,-1.7324036359786987,-0.34217363595962524,0.7699999809265137,0.9800000190734863,1.399999976158142,77
17:12:1:164,0.008656501770019531,0.02913844585418701,-0.0334240198135376,-9.55214786529541,-1.6510475873947144,-0.30628129839897156,0.8400000333786011,0.07000000029802322,1.0499999523162842,77
17:12:1:207,0.03372478485107422,-0.016888856887817383,0.005803167819976807,-9.518648147583008,-1.7012970447540283,-0.26560330390930176,1.8200000524520874,0.49000000953674316,1.190000057220459,77
17:12:1:246,0.06526470184326172,0.04583108425140381,-0.022157102823257446,-9.470791816711426,-1.6271194219589233,-0.2991028428077698,1.9600000381469727,0.7699999809265137,1.190000057220459,77
17:12:1:289,-0.03584480285644531,0.013693690299987793,-0.021554172039031982,-9.580862045288086,-1.65583336353302,-0.3038884699344635,0.8400000333786011,0.7699999809265137,1.0499999523162842,77
17:12:1:325,0.0019521713256835938,-0.029244303703308105,0.0018992424011230469,-9.542576789855957,-1.7060824632644653,-0.2799602448940277,0.49000000953674316,1.190000057220459,1.2599999904632568,77
17:12:1:368,0.018789291381835938,-0.04445242881774902,-0.002309143543243408,-9.521041870117188,-1.7324036359786987,-0.2847459018230438,1.8200000524520874,2.0999999046325684,2.1700000762939453,77
17:12:1:405,-0.0060253143310546875,-0.024076342582702637,-0.019075632095336914,-9.547362327575684,-1.7180466651916504,-0.30628129839897156,2.240000009536743,1.8899999856948853,2.6600000858306885,77
17:12:1:449,-0.022047996520996094,-0.053717732429504395,0.013453364372253418,-9.568897247314453,-1.7611174583435059,-0.27038896083831787,3.2899999618530273,2.5199999809265137,2.870000123977661,77
17:12:1:485,-0.023382186889648438,0.041253089904785156,-0.029436707496643066,-9.57607650756836,-1.65583336353302,-0.3206382095813751,3.2899999618530273,1.8200000524520874,2.309999942779541,77
17:12:1:527,-0.09144783020019531,0.0004601478576660156,-0.046520501375198364,-9.667003631591797,-1.6965112686157227,-0.3493521213531494,4.199999809265137,2.0999999046325684,2.5199999809265137,77
17:12:1:565,-0.032958030700683594,0.059710144996643066,-0.025730818510055542,-9.616753578186035,-1.6223337650299072,-0.3349951505661011,6.650000095367432,3.1500000953674316,4.409999847412109,77
17:12:1:606,-0.05890941619873047,0.07839620113372803,-0.08566945791244507,-9.657432556152344,-1.5840486288070679,-0.4163511395454407,8.260000228881836,3.2200000286102295,4.690000057220459,77
17:12:1:646,0.13472747802734375,0.11631619930267334,-0.037907421588897705,-9.430113792419434,-1.5170495510101318,-0.37806597352027893,12.25,2.240000009536743,4.059999942779541,77
17:12:1:687,-0.01664447784423828,0.11602413654327393,-0.1719810664653778,-9.585646629333496,-1.4883356094360352,-0.5551348924636841,14.069999694824219,4.619999885559082,3.990000009536743,77
17:12:1:726,0.19150924682617188,0.04113435745239258,-0.15098464488983154,-9.329615592956543,-1.5529417991638184,-0.5718846321105957,20.510000228881836,8.680000305175781,6.720000267028809,77
17:12:1:767,0.11300849914550781,0.08650648593902588,-0.06335997581481934,-9.379864692687988,-1.4859429597854614,-0.5000999569892883,37.79999923706055,14.980000495910645,12.600000381469727,77
17:12:1:805,0.013836860656738281,0.10174775123596191,-0.15214362740516663,-9.475577354431152,-1.4452648162841797,-0.6269195079803467,54.599998474121094,15.819999694824219,17.149999618530273,77
17:12:1:847,-0.40815258026123047,0.46424978971481323,0.0984247624874115,-9.999605178833008,-0.9667003750801086,-0.3517449200153351,64.95999908447266,20.3700008392334,20.719999313354492,77
17:12:1:886,-0.1867809295654297,0.534111738204956,0.29313671588897705,-9.824929237365723,-0.763310432434082,-0.08374878764152527,53.47999954223633,19.739999771118164,19.110000610351562,77
17:12:1:926,-0.0001125335693359375,0.5249165892601013,0.40104982256889343,-9.638289451599121,-0.6412764191627502,0.12442677468061447,30.59000015258789,14.350000381469727,12.039999961853027,77
17:12:1:968,0.28513431549072266,0.4429042935371399,0.2251269519329071,-9.281759262084961,-0.6125625967979431,0.004785645287483931,-4.059999942779541,5.880000114440918,-0.6299999952316284,77
17:12:2:7,0.2702207565307617,-0.08404171466827393,0.019303888082504272,-9.229117393493652,-1.160519003868103,-0.19621144235134125,-18.829999923706055,-0.07000000029802322,-5.809999942779541,78
17:12:2:46,0.44971656799316406,-0.3180011510848999,-0.06687000393867493,-8.9371919631958,-1.4739787578582764,-0.2991028428077698,-17.639999389648438,2.309999942779541,-5.389999866485596,78
17:12:2:87,-0.27193260192871094,-0.3960559368133545,-0.34446316957473755,-9.726823806762695,-1.6510475873947144,-0.662811815738678,-8.399999618530273,6.090000152587891,-2.240000009536743,78
17:12:2:126,-0.7420530319213867,-0.3723583221435547,-0.5473952293395996,-10.382457733154297,-1.7204395532608032,-1.00259268283844,-2.870000123977661,6.720000267028809,3.1500000953674316,78
17:12:2:168,-0.29501819610595703,-0.4893122911453247,-0.5699999928474426,-10.009177207946777,-1.9597216844558716,-1.1676974296569824,-3.2200000286102295,5.110000133514404,-0.8400000333786011,78
17:12:2:206,0.2942352294921875,-0.34933626651763916,-0.30860215425491333,-9.346364974975586,-1.9070796966552734,-0.9834501147270203,-1.9600000381469727,3.7100000381469727,-11.130000114440918,78
17:12:2:248,0.6948099136352539,-0.24692654609680176,-0.35982292890548706,-8.772088050842285,-1.8664016723632812,-1.124626636505127,0.5600000023841858,1.1200000047683716,-23.030000686645508,78
17:12:2:286,-0.02225780487060547,-0.15351331233978271,-0.28785836696624756,-9.494720458984375,-1.8113667964935303,-1.124626636505127,13.230000495910645,-0.8400000333786011,-25.899999618530273,78
17:12:2:328,-0.48297119140625,-0.004126548767089844,-0.2762289047241211,-10.076176643371582,-1.6630116701126099,-1.1820544004440308,23.309999465942383,-0.699999988079071,-21.489999771118164,78
17:12:2:366,-0.49548912048339844,0.18429601192474365,-0.2650110125541687,-10.212566375732422,-1.428515076637268,-1.2370892763137817,23.65999984741211,-0.3499999940395355,-14.90999984741211,78
17:12:2:408,-0.09776687622070312,0.17423641681671143,-0.12969565391540527,-9.839285850524902,-1.3950155973434448,-1.1341978311538696,21.21000099182129,-2.5899999141693115,-12.390000343322754,78
17:12:2:447,-0.2179546356201172,0.13173222541809082,-0.2377547025680542,-10.013962745666504,-1.4045867919921875,-1.3016955852508545,12.390000343322754,-6.230000019073486,-15.050000190734863,78
17:12:2:490,-0.1188507080078125,0.18004167079925537,-0.14234721660614014,-9.944571495056152,-1.3112668991088867,-1.2418749332427979,7.070000171661377,-7.28000020980835,-11.6899995803833,78
17:12:2:526,0.2820291519165039,0.07320570945739746,-0.11196351051330566,-9.473184585571289,-1.3998013734817505,-1.239482045173645,3.430000066757202,-5.740000247955322,-4.619999885559082,78
17:12:2:569,0.2064800262451172,0.035593628883361816,0.15353989601135254,-9.497113227844238,-1.428515076637268,-0.9355936050415039,1.190000057220459,-3.7799999713897705,3.569999933242798,78
17:12:2:606,0.29535388946533203,-0.021295785903930664,-0.03222298622131348,-9.33440113067627,-1.490728497505188,-1.129412293434143,-10.010000228881836,-4.409999847412109,9.730000495910645,78
17:12:2:650,0.33582496643066406,-0.1395491361618042,-0.0008929967880249023,-9.20997428894043,-1.643869161605835,-1.098305583000183,-17.360000610351562,-6.720000267028809,11.619999885559082,78
17:12:2:686,0.29737377166748047,-0.2858368158340454,-0.06771349906921387,-9.174081802368164,-1.8616160154342651,-1.1820544004440308,-23.309999465942383,-5.880000114440918,10.430000305175781,78
17:12:2:728,-0.08369636535644531,-0.39138150215148926,-0.2589963674545288,-9.57607650756836,-2.0650060176849365,-1.4380863904953003,-19.8799991607666,-6.369999885559082,11.829999923706055,78
17:12:2:766,-0.10524177551269531,-0.3322477340698242,-0.14976942539215088,-9.623932838439941,-2.0889341831207275,-1.3663017749786377,-15.399999618530273,-2.940000057220459,12.109999656677246,78
17:12:2:808,-0.17990589141845703,-0.3806537389755249,-0.0891873836517334,-9.743573188781738,-2.232503652572632,-1.3280165195465088,-13.579999923706055,3.9200000762939453,10.289999961853027,78
17:12:2:847,0.4456663131713867,-0.22986674308776855,0.31915879249572754,-9.006584167480469,-2.139183282852173,-0.8398807048797607,-5.53000020980835,8.960000038146973,6.230000019073486,78
17:12:2:888,0.37184715270996094,0.07070279121398926,0.3720967769622803,-8.987441062927246,-1.8209381103515625,-0.6939185857772827,-5.53000020980835,9.65999984741211,-4.690000057220459,78
17:12:2:927,0.09456634521484375,0.24415957927703857,0.3474481701850891,-9.241080284118652,-1.5864413976669312,-0.6317051649093628,1.0499999523162842,3.2200000286102295,-10.220000267028809,78
17:12:2:967,-0.40865516662597656,0.2546696662902832,0.21095949411392212,-9.846465110778809,-1.5122638940811157,-0.7154539823532104,-3.5,-2.240000009536743,-12.8100004196167,78
17:12:3:8,-0.696375846862793,0.09845149517059326,-0.005429863929748535,-10.308279991149902,-1.643869161605835,-0.9332008361816406,-5.599999904632568,-3.2899999618530273,-11.760000228881836,78
17:12:3:49,-0.5035018920898438,0.1495887041091919,0.1468825340270996,-10.241281509399414,-1.5553346872329712,-0.7441678047180176,-4.269999980926514,-0.2800000011920929,-10.430000305175781,78
17:12:3:86,0.2901601791381836,0.165613055229187,0.4199587404727936,-9.375079154968262,-1.497907042503357,-0.3661018908023834,-1.399999976158142,0.9100000262260437,-10.5,78
17:12:3:128,0.4771537780761719,0.39282965660095215,0.5273928046226501,-9.06879711151123,-1.1724830865859985,-0.12681959569454193,5.389999866485596,0.9100000262260437,-7.769999980926514,78
17:12:3:167,0.15392494201660156,0.30277812480926514,0.18454626202583313,-9.353544235229492,-1.1868400573730469,-0.42352959513664246,1.1200000047683716,-0.49000000953674316,-4.199999809265137,78
17:12:3:207,-0.22908306121826172,0.14459538459777832,-0.03421753644943237,-9.7938232421875,-1.3088740110397339,-0.6508477926254272,-11.0600004196167,-8.399999618530273,-0.14000000059604645,78
17:12:3:247,-0.2311229705810547,-0.02406454086303711,-0.12117260694503784,-9.853643417358398,-1.4835500717163086,-0.7680960297584534,-13.859999656677246,-6.720000267028809,2.380000114440918,78
17:12:3:288,-0.029844284057617188,-0.13410711288452148,-0.11799496412277222,-9.659825325012207,-1.6271194219589233,-0.794417142868042,-13.369999885559082,-2.1700000762939453,4.550000190734863,78
17:12:3:327,0.20392131805419922,-0.18768441677093506,0.02620232105255127,-9.375079154968262,-1.727617859840393,-0.6436693072319031,-6.650000095367432,-0.42000001668930054,9.029999732971191,78
17:12:3:368,0.14782238006591797,-0.02763497829437256,0.05924701690673828,-9.394222259521484,-1.574477195739746,-0.5958128571510315,-6.510000228881836,-0.21000000834465027,11.480000495910645,78
17:12:3:407,-0.009996414184570312,-0.161848783493042,-0.14977091550827026,-9.554540634155273,-1.7491532564163208,-0.8422735333442688,-10.5,-1.3300000429153442,11.550000190734863,78
17:12:3:449,-0.0539398193359375,-0.23667752742767334,-0.08536010980606079,-9.611968994140625,-1.8831514120101929,-0.7992027401924133,-8.470000267028809,0.49000000953674316,11.130000114440918,78
17:12:3:487,0.008533477783203125,-0.16828513145446777,-0.07785940170288086,-9.547362327575684,-1.856830358505249,-0.8111668825149536,-6.789999961853027,3.2200000286102295,9.65999984741211,78
17:12:3:529,0.06999778747558594,-0.14802789688110352,-0.008688271045684814,-9.468399047851562,-1.8735800981521606,-0.7441678047180176,-2.450000047683716,3.2899999618530273,8.819999694824219,78
17:12:3:567,0.06365585327148438,-0.06673741340637207,0.0925908088684082,-9.458827018737793,-1.8089739084243774,-0.6197410225868225,-1.8200000524520874,3.430000066757202,7.420000076293945,78
17:12:3:609,-0.06201744079589844,-0.12038886547088623,0.012816369533538818,-9.600004196166992,-1.8927226066589355,-0.696311354637146,-1.3300000429153442,4.199999809265137,6.159999847412109,78
17:12:3:649,-0.018985748291015625,-0.10588240623474121,0.14042264223098755,-9.561718940734863,-1.9046868085861206,-0.5335994362831116,0.699999988079071,3.0799999237060547,4.900000095367432,78
17:12:3:687,-0.06878852844238281,-0.01962113380432129,0.08170998096466064,-9.628718376159668,-1.8233308792114258,-0.5718846321105957,1.1200000047683716,1.6800000667572021,1.1200000047683716,78
17:12:3:729,0.029196739196777344,-0.038667917251586914,-0.003545224666595459,-9.523433685302734,-1.852044701576233,-0.6580261588096619,3.430000066757202,-1.190000057220459,-3.0799999237060547,78
17:12:3:768,-0.04364204406738281,0.1815483570098877,-0.052606940269470215,-9.607183456420898,-1.5864413976669312,-0.7202396392822266,3.5,-3.430000066757202,-6.090000152587891,78
17:12:3:808,0.06462860107421875,0.141410231590271,0.06319868564605713,-9.482755661010742,-1.5912269353866577,-0.5886343717575073,5.53000020980835,-4.550000190734863,-7,78
17:12:3:848,-0.05166816711425781,0.07292866706848145,0.03715914487838745,-9.611968994140625,-1.6414762735366821,-0.605384111404419,5.389999866485596,-5.809999942779541,-6.510000228881836,78
17:12:3:887,-0.1427898406982422,0.09471392631530762,-0.03344321250915527,-9.738788604736328,-1.5960125923156738,-0.6843472719192505,7.210000038146973,-6.650000095367432,-5.460000038146973,78
17:12:3:929,0.08867931365966797,0.09874212741851807,0.021101832389831543,-9.485149383544922,-1.5672988891601562,-0.6245267391204834,7.490000247955322,-5.460000038146973,-4.96999979019165,78
17:12:3:967,0.021173477172851562,0.10962188243865967,-0.0730886459350586,-9.547362327575684,-1.529013752937317,-0.7369893789291382,5.880000114440918,-5.25,-5.809999942779541,78
17:12:4:10,0.03033924102783203,0.11641144752502441,-0.05847090482711792,-9.530611991882324,-1.4931212663650513,-0.7369893789291382,6.929999828338623,-4.130000114440918,-5.460000038146973,78
17:12:4:43,0.1352977752685547,0.11035752296447754,-0.014234304428100586,-9.391828536987305,-1.4715858697891235,-0.696311354637146,4.199999809265137,-3.569999933242798,-4.900000095367432,78
17:12:4:81,0.024010658264160156,0.20888423919677734,-0.02478724718093872,-9.497113227844238,-1.3208380937576294,-0.7130610942840576,3.3600001335144043,-3.640000104904175,-2.240000009536743,78
17:12:4:129,0.09960746765136719,0.08479428291320801,0.18116727471351624,-9.396614074707031,-1.423729419708252,-0.4618147313594818,0.21000000834465027,-3.640000104904175,0.8400000333786011,78
17:12:4:169,0.039485931396484375,-0.05467712879180908,0.13919103145599365,-9.446864128112793,-1.576870083808899,-0.46899324655532837,-2.5899999141693115,0.2800000011920929,2.940000057220459,78
17:12:4:208,-0.09475135803222656,0.02325737476348877,0.05392509698867798,-9.604789733886719,-1.4931212663650513,-0.5407779216766357,-1.6100000143051147,0.9100000262260437,5.809999942779541,78
17:12:4:250,0.0007686614990234375,-0.10582089424133301,0.10439634323120117,-9.509077072143555,-1.648654818534851,-0.46420758962631226,-4.059999942779541,-0.14000000059604645,7.559999942779541,78
17:12:4:288,-0.06829833984375,-0.22056901454925537,0.13711631298065186,-9.595218658447266,-1.8185452222824097,-0.397208571434021,-4.760000228881836,-0.14000000059604645,6.510000228881836,78
17:12:4:330,-0.008696556091308594,-0.12477028369903564,0.038865506649017334,-9.53779125213623,-1.7539390325546265,-0.48574298620224,-2.6600000858306885,-0.7699999809265137,5.809999942779541,78
17:12:4:368,0.017928123474121094,-0.059616804122924805,0.05597773194313049,-9.506684303283691,-1.703689694404602,-0.4546363055706024,-2.940000057220459,-0.9800000190734863,4.340000152587891,78
17:12:4:409,-0.03542804718017578,-0.06492173671722412,0.065839022397995,-9.568897247314453,-1.7252250909805298,-0.42831525206565857,-4.829999923706055,0.5600000023841858,1.75,78
17:12:4:449,-0.03408622741699219,-0.15722155570983887,-0.014327824115753174,-9.57607650756836,-1.856830358505249,-0.5120640397071838,-4.269999980926514,1.190000057220459,-0.07000000029802322,78
17:12:4:488,0.020587921142578125,-0.08940637111663818,-0.019119322299957275,-9.516255378723145,-1.8113667964935303,-0.5216353535652161,-2.380000114440918,0.21000000834465027,-0.699999988079071,78
17:12:4:530,0.05666923522949219,0.026102066040039062,-0.028695225715637207,-9.4660062789917,-1.6893328428268433,-0.5383850932121277,-1.6800000667572021,1.3300000429153442,-1.1200000047683716,78
17:12:4:569,-0.017835617065429688,-0.057602882385253906,-0.021041929721832275,-9.54496955871582,-1.7874385118484497,-0.5359922647476196,-3.7100000381469727,1.75,-2.7300000190734863,78
17:12:4:609,0.031673431396484375,-0.07862460613250732,-0.10871797800064087,-9.487542152404785,-1.8281164169311523,-0.6508477926254272,-3.5,0.3499999940395355,-3.3600001335144043,78
17:12:4:649,-0.05505943298339844,-0.057157039642333984,-0.058260440826416016,-9.588040351867676,-1.8209381103515625,-0.6149553656578064,-4.480000019073486,-0.49000000953674316,-4.130000114440918,78
17:12:4:688,0.005722999572753906,0.011702299118041992,-0.04852259159088135,-9.525827407836914,-1.7491532564163208,-0.6173481941223145,-3.3600001335144043,2.309999942779541,-4.059999942779541,78
17:12:4:730,-0.17153358459472656,0.0055332183837890625,0.047323524951934814,-9.745966911315918,-1.7539390325546265,-0.5096712112426758,-3.3600001335144043,5.809999942779541,-3.3600001335144043,78
17:12:4:768,-0.12191200256347656,0.12119638919830322,0.09720078110694885,-9.726823806762695,-1.6079767942428589,-0.43549373745918274,4.480000019073486,5.809999942779541,-1.399999976158142,78
17:12:4:810,-0.05158805847167969,0.15821337699890137,0.16198799014091492,-9.66939640045166,-1.5314064025878906,-0.33020952343940735,6.090000152587891,4.130000114440918,0.2800000011920929,78
17:12:4:849,0.10421276092529297,0.15145599842071533,0.07216265797615051,-9.487542152404785,-1.5002998113632202,-0.4019941985607147,3.009999990463257,2.240000009536743,0.14000000059604645,78
17:12:4:890,0.02019977569580078,0.06182289123535156,-0.08775347471237183,-9.566505432128906,-1.574477195739746,-0.5838487148284912,-0.6299999952316284,-0.42000001668930054,-1.190000057220459,78
17:12:4:929,-0.022125244140625,0.04945826530456543,-0.16208720207214355,-9.614361763000488,-1.574477195739746,-0.6987042427062988,-2.240000009536743,-3.430000066757202,-1.1200000047683716,78
17:12:4:970,0.07418537139892578,-0.017861247062683105,-0.09329879283905029,-9.499505043029785,-1.6462620496749878,-0.6532405614852905,-3.569999933242798,-2.870000123977661,-0.14000000059604645,78
17:12:5:9,0.028718948364257812,-0.04108846187591553,-0.1569521427154541,-9.53779125213623,-1.6797614097595215,-0.7561319470405579,-2.870000123977661,-0.5600000023841858,1.2599999904632568,78
17:12:5:51,0.032546043395996094,-0.0826416015625,-0.08153378963470459,-9.525827407836914,-1.741974949836731,-0.7010970115661621,-0.9100000262260437,0.49000000953674316,3.3600001335144043,78
17:12:5:88,0.07580757141113281,-0.07951295375823975,-0.07671260833740234,-9.463613510131836,-1.758724570274353,-0.7154539823532104,-0.8400000333786011,1.2599999904632568,4.199999809265137,78
17:12:5:131,0.018532752990722656,-0.08083856105804443,0.01711452007293701,-9.516255378723145,-1.7802598476409912,-0.6173481941223145,-0.7699999809265137,1.6800000667572021,4.059999942779541,78
17:12:5:168,-0.011973381042480469,-0.06084251403808594,-0.026507914066314697,-9.549755096435547,-1.7754744291305542,-0.6675975918769836,-1.8200000524520874,1.2599999904632568,3.009999990463257,78
17:12:5:210,-0.0191497802734375,-0.03336000442504883,-0.03077751398086548,-9.561718940734863,-1.7563319206237793,-0.6795615553855896,-1.3300000429153442,0.2800000011920929,2.0299999713897705,78
17:12:5:250,-0.04403400421142578,-0.009459733963012695,-0.03227919340133667,-9.597611427307129,-1.7347965240478516,-0.6891329884529114,-0.9800000190734863,0.699999988079071,1.8200000524520874,78
17:12:5:290,0.06431388854980469,-0.007567763328552246,0.020118892192840576,-9.473184585571289,-1.7347965240478516,-0.6317051649093628,-0.49000000953674316,1.6100000143051147,1.399999976158142,78
17:12:5:329,-0.009805679321289062,-0.007968306541442871,0.03332340717315674,-9.549755096435547,-1.7371891736984253,-0.6101697683334351,0.49000000953674316,1.3300000429153442,1.0499999523162842,78
17:12:5:371,0.030440330505371094,0.03573906421661377,-0.03842604160308838,-9.501898765563965,-1.6845470666885376,-0.6915256977081299,-0.5600000023841858,0.07000000029802322,0.2800000011920929,78
17:12:5:409,0.009037971496582031,0.028591275215148926,0.04774367809295654,-9.521041870117188,-1.6845470666885376,-0.5934200286865234,0.2800000011920929,0.7699999809265137,-0.14000000059604645,78
17:12:5:451,-0.0387115478515625,0.10135757923126221,0.04202347993850708,-9.578469276428223,-1.5864413976669312,-0.5886343717575073,-0.2800000011920929,0.7699999809265137,0.07000000029802322,78
17:12:5:489,0.005401611328125,-0.006969809532165527,0.010647714138031006,-9.533005714416504,-1.6965112686157227,-0.6173481941223145,0.14000000059604645,-0.07000000029802322,0.9100000262260437,78
