time,ax,ay,az,ax_g,ay_g,az_g,rot_x,rot_y,rot_,heart
16:13:28:192,,,,-0.6508477926254272,-3.414557933807373,8.647661209106445,0.14000000059604645,1.5399999618530273,-0.42000001668930054,102
16:13:28:209,-0.41654258966445923,-2.185317039489746,5.534502983093262,-0.6508477926254272,-3.414557933807373,8.647661209106445,-52.92000198364258,24.639999389648438,21,102
16:13:28:246,-0.23369258642196655,-1.717625379562378,4.733883857727051,-0.5264209508895874,-3.376272678375244,9.030512809753418,-2.940000057220459,2.380000114440918,0.14000000059604645,102
16:13:28:284,-0.2730957567691803,-1.2822158336639404,3.9134483337402344,-0.6340980529785156,-3.2614171504974365,9.18843936920166,-1.0499999523162842,1.9600000381469727,0.42000001668930054,102
16:13:28:327,-0.20699098706245422,-1.1463708877563477,3.1154441833496094,-0.6197410225868225,-3.4121649265289307,9.169296264648438,-1.190000057220459,1.0499999523162842,0.07000000029802322,102
16:13:28:367,-0.19813522696495056,-0.8137269020080566,2.425356388092041,-0.6604190468788147,-3.2829525470733643,9.08554744720459,-0.2800000011920929,1.0499999523162842,0.6299999952316284,102
16:13:28:409,-0.16233670711517334,-0.6146104335784912,1.9134855270385742,-0.6652047038078308,-3.2374887466430664,9.052047729492188,0.3499999940395355,-0.5600000023841858,0.9800000190734863,102
16:13:28:451,-0.09158414602279663,-0.6601433753967285,1.4274191856384277,-0.6173481941223145,-3.4480574131011963,8.922836303710938,-0.3499999940395355,0.49000000953674316,1.0499999523162842,102
16:13:28:492,-0.036896467208862305,-0.5108864307403564,1.1802196502685547,-0.5718846321105957,-3.4265220165252686,8.970691680908203,-1.0499999523162842,0.42000001668930054,1.1200000047683716,102
16:13:28:535,-0.05440247058868408,-0.3742525577545166,0.9173755645751953,-0.6029912829399109,-3.383451223373413,8.9371919631958,-2.0299999713897705,0.42000001668930054,0.8400000333786011,102
16:13:28:571,-0.03012216091156006,-0.37597227096557617,0.7951574325561523,-0.5862415432929993,-3.4791641235351562,9.013763427734375,-1.399999976158142,0.699999988079071,0.2800000011920929,102
16:13:28:611,-0.01069796085357666,-0.21080756187438965,0.7126951217651367,-0.5694918036460876,-3.366701364517212,9.109475135803223,-1.6100000143051147,0.6299999952316284,0.7699999809265137,102
16:13:28:650,-0.04110074043273926,-0.2681875228881836,0.4572162628173828,-0.6101697683334351,-3.4911282062530518,8.968299865722656,-1.190000057220459,0.6299999952316284,0.7699999809265137,102
16:13:28:691,-0.0022524595260620117,-0.12457990646362305,0.5361423492431641,-0.5718846321105957,-3.3786656856536865,9.18126106262207,0.5600000023841858,0.2800000011920929,-0.42000001668930054,102
16:13:28:732,-0.03817284107208252,-0.20877671241760254,0.20111656188964844,-0.6173481941223145,-3.515056610107422,8.896513938903809,-0.3499999940395355,0.14000000059604645,-1.190000057220459,102
16:13:28:776,-0.06499499082565308,-0.006223440170288086,0.30063438415527344,-0.6604190468788147,-3.314059257507324,9.07119083404541,0.699999988079071,0.5600000023841858,-0.9800000190734863,102
16:13:28:812,-0.01179659366607666,-0.12557721138000488,0.16202354431152344,-0.6101697683334351,-3.4648072719573975,8.973085403442383,-0.14000000059604645,0.2800000011920929,-0.7699999809265137,102
16:13:28:850,0.01161956787109375,-0.10620450973510742,0.12579059600830078,-0.5838487148284912,-3.4719858169555664,8.968299865722656,-0.14000000059604645,0.21000000834465027,-1.399999976158142,102
16:13:28:896,-0.021332502365112305,-0.025621652603149414,0.10637474060058594,-0.6221339106559753,-3.397808313369751,8.975478172302246,0.699999988079071,0.14000000059604645,-1.75,102
16:13:28:930,0.025047659873962402,-0.012840032577514648,0.1272125244140625,-0.5694918036460876,-3.3882367610931396,9.028119087219238,0.21000000834465027,-0.2800000011920929,-1.75,102
16:13:28:979,-0.058446526527404785,0.012699127197265625,-0.005428314208984375,-0.6675975918769836,-3.359522819519043,8.894121170043945,0.07000000029802322,0.14000000059604645,-1.190000057220459,102
16:13:29:19,-0.025700271129608154,0.036958932876586914,0.02628612518310547,-0.6412764191627502,-3.3260233402252197,8.93240737915039,-0.699999988079071,0.49000000953674316,-1.1200000047683716,104
16:13:29:58,0.00815361738204956,0.02190995216369629,0.015285491943359375,-0.605384111404419,-3.335594892501831,8.925228118896484,-0.2800000011920929,0.9100000262260437,-0.21000000834465027,104
16:13:29:94,0.014179885387420654,-0.08584189414978027,0.06774234771728516,-0.5958128571510315,-3.4648072719573975,8.994620323181152,0.14000000059604645,1.190000057220459,0.42000001668930054,104
16:13:29:137,0.03814351558685303,-0.018903017044067383,0.12119293212890625,-0.5623133182525635,-3.4025940895080566,9.078369140625,-0.699999988079071,0.9800000190734863,0.2800000011920929,104
16:13:29:175,-0.0058560967445373535,0.028905630111694336,0.005069732666015625,-0.607776939868927,-3.3475589752197266,8.963513374328613,0.7699999809265137,0.8400000333786011,-0.21000000834465027,104
16:13:29:215,-0.04105579853057861,-0.024731874465942383,0.05191230773925781,-0.6532405614852905,-3.407379388809204,9.023333549499512,0.07000000029802322,0.42000001668930054,0.5600000023841858,104
16:13:29:254,0.05903971195220947,0.016585350036621094,-0.03503990173339844,-0.5383850932121277,-3.3619158267974854,8.927621841430664,0.07000000029802322,0.699999988079071,0.6299999952316284,104
16:13:29:295,0.05488884449005127,-0.03267383575439453,-0.018461227416992188,-0.5288137793540955,-3.4193434715270996,8.939584732055664,0.14000000059604645,1.1200000047683716,0.7699999809265137,104
16:13:29:335,0.01711142063140869,-0.03762483596801758,-0.028167724609375,-0.5623133182525635,-3.4337005615234375,8.922836303710938,-0.9800000190734863,0.7699999809265137,1.0499999523162842,104
16:13:29:376,-0.06862396001815796,-0.08561325073242188,0.05977821350097656,-0.6652047038078308,-3.5030922889709473,9.025726318359375,-0.9800000190734863,0.8400000333786011,0.2800000011920929,104
16:13:29:414,0.03698527812957764,0.009994029998779297,0.02102375030517578,-0.5503491759300232,-3.404986619949341,8.992227554321289,-0.7699999809265137,0.7699999809265137,0.699999988079071,104
16:13:29:456,0.06787335872650146,0.02713775634765625,0.0034198760986328125,-0.5024927258491516,-3.38105845451355,8.975478172302246,0.9100000262260437,1.2599999904632568,0.6299999952316284,104
16:13:29:494,-0.008871853351593018,0.014053106307983398,0.004650115966796875,-0.5814558863639832,-3.390629768371582,8.97787094116211,-1.3300000429153442,0.42000001668930054,0.3499999940395355,104
16:13:29:535,0.05990156531333923,-0.0021572113037109375,-0.07285022735595703,-0.4977070987224579,-3.407379388809204,8.882158279418945,-2.6600000858306885,0.42000001668930054,-1.1200000047683716,104
16:13:29:576,0.007721841335296631,0.13227224349975586,0.01637554168701172,-0.5479563474655151,-3.239881753921509,8.975478172302246,-2.7300000190734863,-0.14000000059604645,-1.5399999618530273,104
16:13:29:615,0.10380461812019348,-0.14495015144348145,-0.11515617370605469,-0.4259224236011505,-3.5533416271209717,8.815157890319824,-3.8499999046325684,-1.399999976158142,-2.380000114440918,104
16:13:29:656,0.06964388489723206,-0.10638880729675293,0.05144500732421875,-0.44267216324806213,-3.541377305984497,8.994620323181152,-2.0999999046325684,-2.7300000190734863,-3.3600001335144043,104
16:13:29:695,-0.20270973443984985,-0.28610825538635254,-0.11964225769042969,-0.7657032012939453,-3.79262375831604,8.793622970581055,-8.470000267028809,-4.829999923706055,-12.319999694824219,104
16:13:29:737,-0.12388265132904053,-0.27100038528442383,-0.28905391693115234,-0.7178468108177185,-3.8452658653259277,8.551947593688965,-1.8200000524520874,3.9200000762939453,-7.909999847412109,104
16:13:29:775,0.015749335289001465,0.14499425888061523,-0.06470203399658203,-0.5742774605751038,-3.3930225372314453,8.760124206542969,-4.130000114440918,3.8499999046325684,-9.029999732971191,104
16:13:29:816,0.10639816522598267,-0.19794273376464844,0.0764932632446289,-0.4570291042327881,-3.785445213317871,8.920442581176758,-10.010000228881836,3.8499999046325684,-14.84000015258789,104
16:13:29:855,0.039176344871520996,-0.18898248672485352,0.17987823486328125,-0.5144568681716919,-3.823730707168579,9.06879711151123,-9.800000190734863,1.75,-8.680000305175781,104
16:13:29:896,0.10408291220664978,-0.16841411590576172,0.11136054992675781,-0.42352959513664246,-3.8452658653259277,9.028119087219238,-13.300000190734863,0.07000000029802322,-5.179999828338623,104
16:13:29:936,0.1579223871231079,-0.44675517082214355,-0.0027952194213867188,-0.33020952343940735,-4.23529577255249,8.913264274597168,-7.490000247955322,0.2800000011920929,-5.25,104
16:13:29:977,0.05551034212112427,-0.24446320533752441,-0.03286457061767578,-0.41874396800994873,-4.094119548797607,8.874979019165039,-6.159999847412109,1.1200000047683716,-6.579999923706055,104
16:13:30:15,0.05589383840560913,-0.2797980308532715,-0.23494529724121094,-0.4043869972229004,-4.199403762817383,8.614161491394043,0.5600000023841858,2.1700000762939453,-8.75,105
16:13:30:56,0.09257146716117859,0.030757904052734375,0.12215328216552734,-0.3445664942264557,-3.8811583518981934,9.001798629760742,4.760000228881836,4.059999942779541,-7.769999980926514,105
16:13:30:95,-0.1250256597995758,0.12031936645507812,-0.26981449127197266,-0.5934200286865234,-3.76151704788208,8.542377471923828,-3.3600001335144043,2.6600000858306885,-3.9200000762939453,105
16:13:30:136,0.028234779834747314,0.08094120025634766,0.05023002624511719,-0.4331009089946747,-3.7806599140167236,8.874979019165039,1.6800000667572021,5.039999961853027,-2.6600000858306885,105
16:13:30:177,0.11638647317886353,-0.13815832138061523,-0.2546119689941406,-0.3158525824546814,-4.034298896789551,8.506484031677246,-0.3499999940395355,5.25,-5.880000114440918,105
16:13:30:215,-0.09640240669250488,0.12492704391479492,0.2748746871948242,-0.552742063999176,-3.7399816513061523,9.104689598083496,3.990000009536743,6.159999847412109,-2.309999942779541,105
16:13:30:256,0.051133424043655396,0.12482690811157227,0.0705881118774414,-0.3924228847026825,-3.7088751792907715,8.918049812316895,-4.130000114440918,3.569999933242798,-5.949999809265137,105
16:13:30:297,-0.10649117827415466,-0.10304975509643555,-0.05072784423828125,-0.5766702890396118,-3.9625141620635986,8.784051895141602,4.690000057220459,3.7799999713897705,-6.650000095367432,105
16:13:30:337,0.022005558013916016,0.005615949630737305,0.05704498291015625,-0.44267216324806213,-3.8524444103240967,8.906085968017578,1.5399999618530273,-0.14000000059604645,-1.9600000381469727,105
16:13:30:377,0.05780386924743652,-0.11993408203125,-0.08261966705322266,-0.3924228847026825,-4.0079779624938965,8.745766639709473,4.409999847412109,1.0499999523162842,-3.0799999237060547,105
16:13:30:415,0.01944345235824585,-0.06531906127929688,0.088958740234375,-0.4259224236011505,-3.9696927070617676,8.939584732055664,3.640000104904175,1.190000057220459,-2.6600000858306885,105
16:13:30:457,-0.11652904748916626,0.1066279411315918,-0.5720233917236328,-0.5910272002220154,-3.7710886001586914,8.135597229003906,0.2800000011920929,2.799999952316284,-2.0299999713897705,105
16:13:30:495,0.02737504243850708,-0.13675165176391602,0.20279979705810547,-0.44027936458587646,-4.048655986785889,8.96112060546875,2.0999999046325684,3.8499999046325684,-6.650000095367432,105
16:13:30:538,0.03912836313247681,0.19496583938598633,-0.07321357727050781,-0.41874396800994873,-3.6681969165802,8.666803359985352,3.430000066757202,3.9200000762939453,-5.599999904632568,105
16:13:30:576,-0.031867802143096924,0.10428762435913086,0.2955665588378906,-0.4977070987224579,-3.7328033447265625,9.109475135803223,1.5399999618530273,2.0999999046325684,-1.1200000047683716,105
16:13:30:617,-0.11163586378097534,0.0508875846862793,0.3283376693725586,-0.605384111404419,-3.7734813690185547,9.22433090209961,2.240000009536743,2.0299999713897705,-2.799999952316284,105
16:13:30:656,-0.10462278127670288,-0.00906062126159668,0.0750732421875,-0.6245267391204834,-3.8356947898864746,8.989834785461426,1.399999976158142,0.42000001668930054,-3.0799999237060547,105
16:13:30:697,-0.2559813857078552,0.13440656661987305,-0.010769844055175781,-0.8398807048797607,-3.658626079559326,8.901299476623535,2.7300000190734863,-1.6800000667572021,-1.8200000524520874,105
16:13:30:737,0.1991233229637146,0.06349754333496094,-0.2383260726928711,-0.3349951505661011,-3.713660717010498,8.614161491394043,2.0299999713897705,-0.699999988079071,-3.1500000953674316,105
16:13:30:777,-0.16229671239852905,0.24988079071044922,-0.018377304077148438,-0.7369893789291382,-3.4648072719573975,8.82951545715332,0.7699999809265137,-0.699999988079071,-0.42000001668930054,105
16:13:30:816,0.025217533111572266,0.18076181411743164,-0.43775272369384766,-0.5431707501411438,-3.4887356758117676,8.300702095031738,-2.5899999141693115,1.4700000286102295,-1.0499999523162842,105
16:13:30:857,0.2307424247264862,-0.15975713729858398,0.0843343734741211,-0.2799602448940277,-3.8691940307617188,8.843873023986816,1.3300000429153442,2.7300000190734863,-2.5199999809265137,105
16:13:30:896,0.05251017212867737,-0.1278057098388672,-0.001445770263671875,-0.4450649619102478,-3.8691940307617188,8.757731437683105,1.3300000429153442,2.940000057220459,-3.2899999618530273,105
16:13:30:938,0.12432119250297546,-0.14435839653015137,-0.04135704040527344,-0.34217363595962524,-3.9218363761901855,8.707481384277344,3.430000066757202,4.690000057220459,-2.0999999046325684,105
16:13:30:977,0.09562844038009644,0.06636810302734375,0.16599750518798828,-0.34695929288864136,-3.6945178508758545,8.956335067749023,3.009999990463257,3.7100000381469727,-2.5899999141693115,105
16:13:31:17,-0.04600977897644043,-0.18427395820617676,-0.11414146423339844,-0.5000999569892883,-3.9912283420562744,8.647661209106445,-5.320000171661377,4.96999979019165,-6.440000057220459,105
16:13:31:56,-0.08657851815223694,-0.07084870338439941,-0.2004261016845703,-0.5623133182525635,-3.895515203475952,8.511269569396973,4.269999980926514,6.510000228881836,-8.329999923706055,105
16:13:31:98,-0.15540438890457153,0.07157635688781738,0.07894134521484375,-0.6699903011322021,-3.735196113586426,8.810372352600098,-4.690000057220459,7.139999866485596,-11.40999984741211,105
16:13:31:138,-0.15495169162750244,-0.07099413871765137,-0.5283527374267578,-0.7082754969596863,-3.895515203475952,8.070990562438965,-8.680000305175781,11.0600004196167,-18.549999237060547,105
16:13:31:178,0.17466294765472412,0.2437431812286377,0.3755626678466797,-0.3349951505661011,-3.5198421478271484,9.06879711151123,4.829999923706055,16.940000534057617,-14.5600004196167,105
16:13:31:216,-0.44028985500335693,1.1310667991638184,-0.4059104919433594,-1.0600204467773438,-2.3497519493103027,8.185846328735352,-3.7799999713897705,30.65999984741211,-18.059999465942383,105
16:13:31:256,-0.31777524948120117,-0.7528941631317139,0.006438255310058594,-1.0169496536254883,-4.421936511993408,8.599804878234863,-0.9100000262260437,16.799999237060547,-9.9399995803833,105
16:13:31:298,0.15160256624221802,0.41607046127319336,0.4684009552001953,-0.5096712112426758,-3.148954391479492,9.17886734008789,-3.3600001335144043,18.829999923706055,-10.430000305175781,105
16:13:31:337,-1.6762065887451172,-0.5400454998016357,-0.08852958679199219,-2.7565319538116455,-4.240081787109375,8.599804878234863,-8.119999885559082,44.45000076293945,82.80999755859375,105
16:13:31:378,-0.012469887733459473,0.08481335639953613,0.2909708023071289,-1.0959126949310303,-3.594019651412964,9.052047729492188,6.159999847412109,19.950000762939453,-7.420000076293945,105
16:13:31:417,-0.4655693769454956,0.4085886478424072,0.15429210662841797,-1.6654045581817627,-3.1680972576141357,8.95394229888916,-15.680000305175781,18.34000015258789,3.569999933242798,105
16:13:31:458,-0.23845744132995605,0.12587404251098633,-0.2287893295288086,-1.497907042503357,-3.4193434715270996,8.513663291931152,-30.309999465942383,14.489999771118164,9.65999984741211,105
16:13:31:497,-0.11610972881317139,0.14281296730041504,-0.2328023910522461,-1.4045867919921875,-3.366701364517212,8.451449394226074,-27.3700008392334,17.149999618530273,15.050000190734863,105
16:13:31:539,-0.4355400800704956,-0.6074249744415283,-0.18624210357666016,-1.832902193069458,-4.268795490264893,8.451449394226074,-38.9900016784668,13.300000190734863,17.920000076293945,105
16:13:31:577,-0.4288308620452881,-0.013118267059326172,-0.6313867568969727,-1.9334007501602173,-3.6777684688568115,7.848458290100098,-28.700000762939453,20.579999923706055,27.510000228881836,105
16:13:31:618,-0.21863794326782227,0.747551679611206,-1.039186954498291,-1.777867317199707,-2.730210542678833,7.180860996246338,-37.869998931884766,20.020000457763672,36.68000030517578,105
16:13:31:657,-0.7530161142349243,-0.30548858642578125,-0.3776707649230957,-2.5004994869232178,-3.8596229553222656,7.747959613800049,-22.1200008392334,26.950000762939453,28.280000686645508,105
16:13:31:698,-1.4887142181396484,0.19971728324890137,-0.5682182312011719,-3.6083762645721436,-3.304487943649292,7.41535758972168,-59.9900016784668,34.09000015258789,45.36000061035156,105
16:13:31:738,-1.2254281044006348,-1.3276050090789795,-0.14255046844482422,-3.651447057723999,-5.1637115478515625,7.805387496948242,-55.15999984741211,27.860000610351562,51.029998779296875,105
16:13:31:779,-1.2789666652679443,-1.291794776916504,-0.8280587196350098,-4.0247273445129395,-5.450850009918213,6.912864685058594,-17.920000076293945,38.290000915527344,63.560001373291016,105
16:13:31:817,-1.120800495147705,-1.4890294075012207,0.2985105514526367,-4.146761417388916,-6.020341873168945,8.11406135559082,-28.559999465942383,26.389999389648438,56.13999938964844,105
16:13:31:858,-0.7702996730804443,-1.7119016647338867,-0.7144918441772461,-3.988835573196411,-6.671189785003662,6.922436237335205,-15.329999923706055,21.559999465942383,46.47999954223633,105
16:13:31:897,-0.771294355392456,-1.1474671363830566,-0.28636932373046875,-4.182653903961182,-6.393621921539307,7.278966426849365,-18.829999923706055,14.069999694824219,33.25,105
16:13:31:939,-0.8831174373626709,-1.2108550071716309,-0.34586524963378906,-4.515256404876709,-6.759723663330078,7.133004188537598,-7,8.1899995803833,19.809999465942383,105
16:13:31:978,-0.6911797523498535,-0.05941152572631836,-0.9256258010864258,-4.4961137771606445,-5.623133182525635,6.321837425231934,-1.75,6.929999828338623,10.079999923706055,105
16:13:32:18,-0.46297335624694824,0.4635777473449707,-0.6601018905639648,-4.383650779724121,-4.984249591827393,6.422336101531982,2.799999952316284,7.769999980926514,8.329999923706055,104
16:13:32:57,-0.4029216766357422,0.7383999824523926,-0.5242528915405273,-4.4243292808532715,-4.524827480316162,6.427121639251709,-6.929999828338623,6.650000095367432,10.079999923706055,104
16:13:32:99,-0.10219717025756836,1.457878828048706,-0.8003396987915039,-4.149154186248779,-3.4408791065216064,5.950949668884277,-14.630000114440918,9.730000495910645,20.790000915527344,104
16:13:32:211,-0.17172813415527344,1.6046686172485352,-1.6088857650756836,-4.261617183685303,-2.8929224014282227,4.740181922912598,-34.22999954223633,15.609999656677246,36.61000061035156,104
16:13:32:215,-0.6886892318725586,1.1420795917510986,-2.7764015197753906,-4.950750350952148,-3.06999135017395,2.878565788269043,-52.220001220703125,27.15999984741211,55.439998626708984,104
16:13:32:218,-1.006544589996338,1.055318832397461,-3.1591081619262695,-5.520241737365723,-2.8929224014282227,1.7060824632644653,-75.31999969482422,39.970001220703125,79.87000274658203,104
16:13:32:254,-1.570939064025879,0.4460892677307129,-2.4488019943237305,-6.477370738983154,-3.390629768371582,1.8041881322860718,-106.81999969482422,47.7400016784668,99.26000213623047,104
16:13:32:290,-2.418705940246582,0.09653234481811523,-1.595332384109497,-7.929814338684082,-3.7160534858703613,2.258824586868286,-122.98999786376953,47.25,118.09000396728516,104
16:13:32:331,-2.9648351669311523,-0.24628376960754395,-1.3145508766174316,-9.21715259552002,-4.120440483093262,2.210968255996704,-119.3499984741211,60.47999954223633,134.3300018310547,104
16:13:32:370,-5.162856101989746,-0.899559497833252,-1.2143528461456299,-12.705887794494629,-4.998606204986572,2.007578134536743,-132.50999450683594,64.81999969482422,150.99000549316406,104
16:13:32:418,-3.7072343826293945,-1.5006651878356934,-0.43549013137817383,-12.177074432373047,-5.974878311157227,2.6775684356689453,-134.3300018310547,36.959999084472656,144.5500030517578,104
16:13:32:462,-2.8030757904052734,-1.5412702560424805,-0.09953832626342773,-11.973685264587402,-6.400800704956055,2.988635540008545,-100.37999725341797,31.010000228881836,117.80999755859375,104
16:13:32:504,-0.7148828506469727,-1.2789583206176758,-0.12557291984558105,-10.064212799072266,-6.458228588104248,2.9312076568603516,-70.9800033569336,34.369998931884766,58.2400016784668,104
16:13:32:544,0.0062007904052734375,-0.8623685836791992,0.2441082000732422,-9.34157943725586,-6.257230758666992,3.3619158267974854,-22.96000099182129,40.31999969482422,30.59000015258789,104
16:13:32:581,0.2920999526977539,-0.44295597076416016,-0.25647830963134766,-8.98265552520752,-5.948556900024414,2.7972097396850586,32.130001068115234,45.92000198364258,12.25,104
16:13:32:619,0.48827552795410156,0.2447977066040039,-0.1764688491821289,-8.664410591125488,-5.199604034423828,2.833101987838745,66.36000061035156,36.470001220703125,3.430000066757202,104
16:13:32:658,0.4978189468383789,0.7471446990966797,0.05599379539489746,-8.530412673950195,-4.510470867156982,3.0795629024505615,71.81999969482422,27.09000015258789,-0.699999988079071,104
16:13:32:699,0.11303043365478516,0.4330897331237793,-0.3648562431335449,-8.886943817138672,-4.716253280639648,2.5674986839294434,60.34000015258789,10.079999923706055,-8.1899995803833,104
16:13:32:739,-0.3077411651611328,0.6297821998596191,-0.7551354169845581,-9.384650230407715,-4.362115383148193,1.9884356260299683,60.900001525878906,-4.96999979019165,-17.290000915527344,104
16:13:32:780,-0.45676136016845703,0.722050666809082,-0.7783058881759644,-9.647860527038574,-4.089334011077881,1.7706886529922485,57.68000030517578,-16.940000534057617,-32.619998931884766,104
16:13:32:819,-0.47069358825683594,0.8130941390991211,-0.8159846067428589,-9.77946662902832,-3.7950167655944824,1.529013752937317,47.95000076293945,-21.90999984741211,-49,104
16:13:32:858,-0.1908712387084961,0.7691593170166016,-0.7370152473449707,-9.547362327575684,-3.6466617584228516,1.423729419708252,44.099998474121094,-22.68000030517578,-57.81999969482422,104
16:13:32:899,0.00235748291015625,0.9177801609039307,-0.7618954181671143,-9.353544235229492,-3.2685959339141846,1.2083754539489746,36.400001525878906,-20.15999984741211,-62.09000015258789,104
16:13:32:939,0.2564830780029297,0.7820806503295898,-0.7071435451507568,-9.035298347473145,-3.208775281906128,1.0863415002822876,26.31999969482422,-18.760000228881836,-60.689998626708984,104
16:13:32:980,0.32195568084716797,0.6352360248565674,-0.7360838055610657,-8.889336585998535,-3.1968109607696533,0.8733802437782288,25.899999618530273,-13.510000228881836,-52.9900016784668,104
16:13:33:18,0.4030485153198242,0.536902666091919,-0.6405520439147949,-8.707481384277344,-3.160918712615967,0.8087739944458008,18.1299991607666,-6.860000133514404,-37.939998626708984,104
16:13:33:59,0.2650108337402344,0.45249319076538086,-0.3382441997528076,-8.779266357421875,-3.13220477104187,1.026520848274231,18.200000762939453,6.300000190734863,-23.520000457763672,104
16:13:33:100,0.12969493865966797,0.5763914585113525,0.5735924243927002,-8.882158279418945,-2.864208698272705,2.0817556381225586,-2.870000123977661,11.619999885559082,-11.550000190734863,104
16:13:33:139,-0.1355266571044922,0.5032267570495605,0.3995319604873657,-9.18126106262207,-2.8115665912628174,2.007578134536743,-80.77999877929688,16.100000381469727,-9.730000495910645,104
16:13:33:180,0.11937618255615234,-2.0227837562561035,0.6086785793304443,-8.896513938903809,-5.843273162841797,2.368894338607788,-132.7899932861328,2.240000009536743,-34.650001525878906,104
16:13:33:218,0.8171758651733398,-3.47122859954834,-0.4797574281692505,-7.994420051574707,-8.159524917602539,1.160519003868103,-95.9000015258789,17.780000686645508,-51.17000198364258,104
16:13:33:259,0.5503711700439453,-3.1579198837280273,-0.7609147429466248,-8.123632431030273,-8.635696411132812,0.6891329884529114,18.1299991607666,40.31999969482422,-78.95999908447266,104
16:13:33:298,1.2270565032958984,-1.7051191329956055,-0.440277099609375,-7.1401824951171875,-7.609175682067871,0.8997013568878174,50.470001220703125,45.63999938964844,-93.44999694824219,104
16:13:33:341,0.9395318031311035,-0.3725099563598633,1.3591251373291016,-7.192824840545654,-6.369694232940674,3.0388848781585693,35.90999984741211,40.25,-102.97000122070312,104
16:13:33:379,0.9851651191711426,0.618922233581543,-0.0363694429397583,-6.900900363922119,-5.223531246185303,1.6342979669570923,-82.45999908447266,74.69000244140625,-129.00999450683594,104
16:13:33:420,0.07602787017822266,-0.8046441078186035,-1.6791861057281494,-7.791030406951904,-6.8482584953308105,-0.42831525206565857,-151.27000427246094,55.439998626708984,-119.20999908447266,104
16:13:33:534,0.9681806564331055,-1.0878233909606934,-3.125523090362549,-6.656832218170166,-7.403393745422363,-2.6560330390930176,-101.22000122070312,62.15999984741211,-69.09000396728516,104
16:13:33:539,2.2504372596740723,-0.3017234802246094,-2.6344168186187744,-4.811966419219971,-6.692724704742432,-2.823530912399292,-52.220001220703125,64.88999938964844,-50.2599983215332,104
16:13:33:543,2.2425432205200195,0.6812934875488281,-1.531341552734375,-4.2592244148254395,-5.539384365081787,-2.1032910346984863,11.760000228881836,69.72000122070312,-17.290000915527344,104
16:13:33:576,1.790205955505371,1.3049955368041992,-0.5742256045341492,-4.264009952545166,-4.589433670043945,-1.289731502532959,15.890000343322754,51.59000015258789,0.5600000023841858,104
16:13:33:611,1.4398221969604492,0.27446460723876953,-0.7101481556892395,-4.254438400268555,-5.551348686218262,-1.6031911373138428,-20.020000457763672,27.229999542236328,15.399999618530273,104
16:13:33:651,1.1748285293579102,-1.309920310974121,-1.3185077905654907,-4.225724697113037,-7.463213920593262,-2.541177749633789,-31.989999771118164,11.0600004196167,12.600000381469727,104
16:13:33:703,1.2691149711608887,-1.9304094314575195,-1.9277077913284302,-3.814159393310547,-8.566305160522461,-3.6323046684265137,-51.72999954223633,3.2899999618530273,9.029999732971191,104
16:13:33:745,1.061234474182129,-2.6584253311157227,-2.2389562129974365,-3.7567315101623535,-9.958927154541016,-4.503292083740234,-26.18000030517578,-0.21000000834465027,7.769999980926514,104
16:13:33:814,0.5446205139160156,-2.1745972633361816,-2.085960626602173,-4.137190341949463,-10.01874828338623,-4.871786594390869,34.02000045776367,13.15999984741211,-2.450000047683716,104
16:13:33:817,0.6175506114959717,-0.007274150848388672,-0.7537534236907959,-3.90987229347229,-7.853243827819824,-3.728017807006836,34.29999923706055,25.899999618530273,-5.110000133514404,104
16:13:33:862,0.45192694664001465,-1.447256088256836,-1.0987954139709473,-3.9625141620635986,-9.65503978729248,-4.347758769989014,53.83000183105469,31.989999771118164,-7.210000038146973,104
16:13:33:899,0.10694551467895508,0.9019370079040527,0.06852149963378906,-4.280759334564209,-7.080362319946289,-3.16331148147583,65.7300033569336,44.099998474121094,-4.900000095367432,104
16:13:33:941,0.3267524242401123,0.05538797378540039,-0.16149401664733887,-3.9792640209198,-7.913064479827881,-3.4337005615234375,32.20000076293945,38.92000198364258,-1.190000057220459,104
16:13:33:979,0.19440317153930664,0.13428020477294922,0.0028884410858154297,-4.063012599945068,-7.800601959228516,-3.2685959339141846,24.149999618530273,33.25,9.380000114440918,104
16:13:34:19,-0.3957839012145996,-0.16631460189819336,0.008053779602050781,-4.752145767211914,-8.142775535583496,-3.2614171504974365,-5.179999828338623,21.770000457763672,6.230000019073486,104
16:13:34:60,0.047081947326660156,-1.7754840850830078,0.13086986541748047,-4.29750919342041,-10.195816040039062,-3.1058835983276367,-31.010000228881836,8.050000190734863,-11.270000457763672,104
16:13:34:99,0.4913444519042969,-1.3706169128417969,-0.6610074043273926,-3.730410575866699,-10.1336030960083,-4.063012599945068,-8.399999618530273,12.880000114440918,-33.38999938964844,104
16:13:34:145,0.8984396457672119,-0.44756126403808594,-0.12872624397277832,-3.098705530166626,-9.322437286376953,-3.562912940979004,1.4700000286102295,21.770000457763672,-42.84000015258789,104
16:13:34:175,1.0097191333770752,0.09754467010498047,-0.8246564865112305,-2.7349963188171387,-8.752944946289062,-4.465007305145264,11.0600004196167,23.8700008392334,-44.380001068115234,104
16:13:34:219,1.0374863147735596,1.243818759918213,0.05620765686035156,-2.447857618331909,-7.295715808868408,-3.5700912475585938,6.300000190734863,34.790000915527344,-42.349998474121094,104
16:13:34:260,1.0922424793243408,0.24083709716796875,-0.45465517044067383,-2.1200408935546875,-8.23848819732666,-4.194617748260498,-36.119998931884766,14.140000343322754,-52.0099983215332,104
16:13:34:300,1.1743323802947998,0.04910087585449219,-0.7331764698028564,-1.7443678379058838,-8.417949676513672,-4.65643310546875,-36.400001525878906,10.289999961853027,-69.51000213623047,104
16:13:34:341,0.29053258895874023,0.04310894012451172,-2.7362523078918457,-2.555534601211548,-8.413164138793945,-7.34357213973999,-5.53000020980835,21.700000762939453,-61.459999084472656,104
16:13:34:380,-0.31696581840515137,0.9303598403930664,-2.638853073120117,-3.242274522781372,-7.293323516845703,-7.905886173248291,83.93000030517578,66.43000030517578,11.0600004196167,104
16:13:34:420,-0.6670525074005127,2.991626739501953,1.9414019584655762,-3.759124279022217,-4.484149932861328,-2.840280532836914,31.219999313354492,78.05000305175781,31.5,104
16:13:34:460,-0.08379125595092773,0.07704925537109375,2.6270203590393066,-3.1968109607696533,-7.379465103149414,-1.497907042503357,-33.38999938964844,70,36.540000915527344,104
16:13:34:500,0.5685007572174072,-0.1317005157470703,2.568695306777954,-2.4023938179016113,-7.621140003204346,-0.9140582084655762,43.75,78.68000030517578,66.08000183105469,104
16:13:34:541,-0.9847216606140137,-1.67313814163208,3.6131625175476074,-4.201796531677246,-9.580862045288086,1.0336993932724,60.34000015258789,55.22999954223633,75.80999755859375,104
16:13:34:581,-1.4003398418426514,-1.2753400802612305,3.941457748413086,-4.967499732971191,-9.501898765563965,2.3473589420318604,-13.440000534057617,-22.049999237060547,63,104
16:13:34:620,-0.4139103889465332,-2.2415695190429688,0.00038313865661621094,-4.084547996520996,-11.028520584106445,-1.5936198234558105,-6.159999847412109,-66.63999938964844,44.79999923706055,104
16:13:34:660,-1.0145182609558105,-0.29247570037841797,-0.7826249599456787,-4.938785552978516,-9.152545928955078,-2.57228422164917,79.0999984741211,-59.36000061035156,65.30999755859375,104
16:13:34:700,-1.1504387855529785,-0.1612396240234375,0.8172505497932434,-5.362315654754639,-9.061619758605957,-0.7680960297584534,61.810001373291016,-60.060001373291016,55.58000183105469,104
16:13:34:741,-1.1672906875610352,-0.5998983383178711,0.9141395092010498,-5.670989990234375,-9.650253295898438,-0.44267216324806213,24.43000030517578,-69.30000305175781,29.399999618530273,104
16:13:34:781,-0.1068730354309082,-1.1690521240234375,-0.7828664779663086,-4.6372904777526855,-10.511670112609863,-2.335394859313965,13.09000015258789,-76.30000305175781,5.460000038146973,104
16:13:34:821,0.06381416320800781,-1.3544626235961914,-0.11327195167541504,-4.450649738311768,-11.035696983337402,-1.6941183805465698,70.48999786376953,-68.45999908447266,-8.260000228881836,104
16:13:34:860,0.3573322296142578,0.4497499465942383,1.5441588163375854,-4.067798614501953,-9.119047164916992,0.3493521213531494,82.31999969482422,-53.83000183105469,-24.360000610351562,104
16:13:34:901,0.8658857345581055,0.10520362854003906,0.6342499256134033,-3.3427734375,-9.437292098999023,-0.4019941985607147,-8.890000343322754,-47.810001373291016,-50.119998931884766,104
16:13:34:941,1.2669861316680908,0.5359277725219727,0.3676590919494629,-2.6249265670776367,-8.872586250305176,-0.5766702890396118,-9.380000114440918,-40.459999084472656,-62.09000015258789,104
16:13:34:982,1.5380958318710327,0.6565380096435547,-0.28972136974334717,-1.9692929983139038,-8.587841033935547,-1.306481122970581,-38.220001220703125,-27.719999313354492,-69.30000305175781,104
16:13:35:21,1.4889014959335327,1.151193618774414,-0.5782577991485596,-1.6462620496749878,-7.805387496948242,-1.7395820617675781,-63.42000198364258,-5.039999961853027,-52.779998779296875,105
16:13:35:60,1.1700643301010132,0.7410144805908203,-0.5353480577468872,-1.672582983970642,-8.030312538146973,-1.8305093050003052,-58.17000198364258,5.880000114440918,-39.34000015258789,105
16:13:35:100,0.8479956388473511,0.1640176773071289,-0.301937460899353,-1.782652735710144,-8.566305160522461,-1.672582983970642,-48.5099983215332,15.190000534057617,-21.139999389648438,105
16:13:35:142,0.27257394790649414,-0.37606334686279297,-0.07118105888366699,-2.289931058883667,-9.20040225982666,-1.459621787071228,-13.720000267028809,28.350000381469727,-3.569999933242798,105
16:13:35:181,-0.1743640899658203,0.013087272644042969,1.7022583484649658,-2.7804601192474365,-8.807979583740234,0.7393822073936462,5.110000133514404,24.71000099182129,12.529999732971191,105
16:13:35:221,-0.06292080879211426,-0.471923828125,2.0164830684661865,-2.6847469806671143,-9.410971641540527,1.557727575302124,-8.329999923706055,10.430000305175781,10.640000343322754,105
16:13:35:261,0.19660258293151855,-1.8189754486083984,0.5412018895149231,-2.376072883605957,-11.212766647338867,0.21774686872959137,-11.270000457763672,-2.940000057220459,5.740000247955322,105
16:13:35:301,0.8196154832839966,-0.8541040420532227,-0.9510471224784851,-1.5481561422348022,-10.461421012878418,-1.5122638940811157,34.29999923706055,12.880000114440918,5.880000114440918,105
16:13:35:342,0.9064602851867676,0.13027667999267578,-0.6344967484474182,-1.234696388244629,-9.44447135925293,-1.3543376922607422,33.7400016784668,28.06999969482422,3.0799999237060547,105
16:13:35:382,0.5567135810852051,-0.41837120056152344,0.3155336380004883,-1.4452648162841797,-10.097711563110352,-0.3254238963127136,40.95000076293945,37.310001373291016,1.5399999618530273,105
16:13:35:421,0.29605865478515625,0.5822324752807617,0.6391070485115051,-1.6319050788879395,-8.951549530029297,0.1579262912273407,15.329999923706055,39.27000045776367,-10.079999923706055,105
16:13:35:461,0.22727560997009277,0.2265033721923828,-0.07830584049224854,-1.643869161605835,-9.250652313232422,-0.5790630578994751,-37.939998626708984,38.5,-1.8200000524520874,105
16:13:35:501,0.5321297645568848,1.153646469116211,-1.0216879844665527,-1.2059825658798218,-8.0350980758667,-1.777867317199707,-31.71000099182129,35.06999969482422,8.470000267028809,105
16:13:35:542,-0.9142769575119019,0.7391481399536133,-1.075775146484375,-2.8809585571289062,-8.264809608459473,-2.100898265838623,-29.399999618530273,56.06999969482422,38.709999084472656,105
16:13:35:582,-1.8857192993164062,-0.09972858428955078,-0.8338205814361572,-4.323830604553223,-9.128618240356445,-2.0673987865448,-2.870000123977661,63,50.33000183105469,105
16:13:35:621,-1.8703701496124268,-0.4741201400756836,-0.272719144821167,-4.776073932647705,-9.621540069580078,-1.574477195739746,-3.9200000762939453,47.529998779296875,31.219999313354492,105
16:13:35:661,-0.627223014831543,-0.756403923034668,0.4537292718887329,-3.689732551574707,-10.092925071716309,-0.7345964908599854,1.6100000143051147,28.489999771118164,13.649999618530273,105
16:13:35:702,0.04761362075805664,-0.8195209503173828,-0.6132882833480835,-3.0029923915863037,-10.360921859741211,-1.954936146736145,16.170000076293945,18.40999984741211,5.110000133514404,105
16:13:35:742,-0.14759206771850586,0.7475337982177734,0.08938968181610107,-3.235095977783203,-8.606983184814453,-1.2299107313156128,16.239999771118164,17.219999313354492,3.009999990463257,105
16:13:35:782,-0.06447482109069824,0.1826333999633789,-0.21754121780395508,-3.1680972576141357,-9.126225471496582,-1.5912269353866577,10.430000305175781,17.639999389648438,0.9800000190734863,105
16:13:35:822,-0.17409205436706543,0.03125190734863281,0.09587740898132324,-3.321237564086914,-9.269794464111328,-1.2538390159606934,21.90999984741211,15.609999656677246,4.059999942779541,105
16:13:35:862,-0.20627284049987793,-0.0037126541137695312,-0.028582334518432617,-3.404986619949341,-9.305686950683594,-1.3854442834854126,18.270000457763672,16.799999237060547,0.14000000059604645,105
16:13:35:902,-0.1669325828552246,0.28991127014160156,0.20493090152740479,-3.407379388809204,-8.939584732055664,-1.1006983518600464,11.40999984741211,14.350000381469727,-0.07000000029802322,105
16:13:35:943,-0.1794884204864502,0.1993865966796875,0.20988678932189941,-3.4648072719573975,-8.980262756347656,-1.0432707071304321,3.8499999046325684,4.96999979019165,-0.9800000190734863,105
16:13:35:982,-0.02107834815979004,0.03699684143066406,0.08176779747009277,-3.31166672706604,-9.133403778076172,-1.1509476900100708,-1.2599999904632568,0.5600000023841858,-0.8400000333786011,105
16:13:36:22,-0.011119604110717773,-0.07377243041992188,0.02521491050720215,-3.304487943649292,-9.262616157531738,-1.2011969089508057,-1.75,-2.1700000762939453,-1.399999976158142,105
16:13:36:62,0.14807367324829102,0.1132650375366211,0.06419980525970459,-3.1082763671875,-9.047262191772461,-1.1461620330810547,2.1700000762939453,-7.28000020980835,-2.7300000190734863,105
16:13:36:102,0.13760137557983398,0.05615520477294922,0.05327403545379639,-3.084348201751709,-9.090332984924316,-1.1437692642211914,-3.5,-10.359999656677246,-1.1200000047683716,105
16:13:36:142,0.20962238311767578,-0.22307205200195312,-0.032036781311035156,-2.9599215984344482,-9.425328254699707,-1.2370892763137817,-2.1700000762939453,-11.619999885559082,-1.6800000667572021,105
16:13:36:183,0.12749838829040527,-0.004260063171386719,0.14473950862884521,-3.0101709365844727,-9.207581520080566,-1.0241280794143677,1.1200000047683716,-13.720000267028809,-1.6800000667572021,105
16:13:36:221,0.1077415943145752,0.04062080383300781,0.05262112617492676,-3.0029923915863037,-9.152545928955078,-1.1030912399291992,0.2800000011920929,-15.050000190734863,-1.4700000286102295,105
16:13:36:264,0.14553499221801758,0.13012313842773438,-0.09572958946228027,-2.9288151264190674,-9.030512809753418,-1.275374412536621,-2.380000114440918,-16.799999237060547,-1.8899999856948853,105
16:13:36:301,0.19874143600463867,0.048584938049316406,0.05741429328918457,-2.825923442840576,-9.099905014038086,-1.1078768968582153,-3.9200000762939453,-17.920000076293945,-2.380000114440918,105
16:13:36:344,0.28533411026000977,-0.07598686218261719,0.001903533935546875,-2.667997360229492,-9.243474006652832,-1.1629117727279663,-5.880000114440918,-18.34000015258789,-2.5199999809265137,105
16:13:36:382,0.335465669631958,-0.21584415435791016,-0.05016219615936279,-2.53399920463562,-9.437292098999023,-1.227518081665039,-5.110000133514404,-16.8700008392334,-3.7100000381469727,105
16:13:36:423,0.27028679847717285,-0.04250621795654297,0.06898307800292969,-2.531606435775757,-9.274580955505371,-1.0911270380020142,-3.430000066757202,-14.279999732971191,-3.2899999618530273,105
16:13:36:461,0.2124009132385254,-0.05888938903808594,0.07241475582122803,-2.5363922119140625,-9.305686950683594,-1.0695916414260864,-1.6100000143051147,-11.0600004196167,-2.380000114440918,105
16:13:36:503,0.20246315002441406,-0.1332530975341797,-0.028209924697875977,-2.4957141876220703,-9.413363456726074,-1.1772687435150146,0.3499999940395355,-8.119999885559082,-1.75,105
16:13:36:542,0.0356297492980957,-0.07597541809082031,0.04060256481170654,-2.6536402702331543,-9.375079154968262,-1.098305583000183,0.699999988079071,-5.670000076293945,-0.8400000333786011,105
16:13:36:583,0.03233218193054199,0.109588623046875,0.08799552917480469,-2.6488547325134277,-9.162117958068848,-1.0289137363433838,1.6800000667572021,-3.7100000381469727,-0.8400000333786011,105
16:13:36:622,-0.014333486557006836,0.0034427642822265625,0.08188199996948242,-2.699103832244873,-9.267402648925781,-1.0145567655563354,1.6800000667572021,-3.1500000953674316,-0.5600000023841858,105
16:13:36:663,-0.04783773422241211,-0.16952800750732422,-0.043607115745544434,-2.744567632675171,-9.482755661010742,-1.1509476900100708,1.9600000381469727,-2.0999999046325684,-1.399999976158142,105
16:13:36:702,-0.0631556510925293,0.08260250091552734,0.08762675523757935,-2.775674343109131,-9.20997428894043,-0.9978070855140686,1.399999976158142,-2.1700000762939453,-2.1700000762939453,105
16:13:36:744,-0.06201004981994629,0.10245323181152344,0.07010143995285034,-2.7900311946868896,-9.164510726928711,-0.9978070855140686,0.2800000011920929,-2.380000114440918,-1.6800000667572021,105
16:13:36:782,0.007819890975952148,0.03793525695800781,0.03693854808807373,-2.7182462215423584,-9.219545364379883,-1.0217353105545044,-1.6100000143051147,-1.6800000667572021,-2.0299999713897705,105
16:13:36:823,-0.037772178649902344,0.011205673217773438,0.012322545051574707,-2.7732813358306885,-9.243474006652832,-1.0432707071304321,-0.6299999952316284,0.07000000029802322,-0.9800000190734863,105
16:13:36:863,-0.04936051368713379,0.05299186706542969,0.082599937915802,-2.7972097396850586,-9.18843936920166,-0.9523434042930603,0.7699999809265137,1.2599999904632568,-0.21000000834465027,105
16:13:36:903,-0.062459468841552734,0.12087821960449219,0.054594337940216064,-2.825923442840576,-9.090332984924316,-0.9667003750801086,0.6299999952316284,1.8200000524520874,-0.21000000834465027,105
16:13:36:943,-0.06336760520935059,-0.04112434387207031,0.013047456741333008,-2.8426735401153564,-9.262616157531738,-1.0049854516983032,-1.399999976158142,1.8200000524520874,0.7699999809265137,105
16:13:36:984,-0.0832362174987793,-0.011842727661132812,-0.025933027267456055,-2.8833510875701904,-9.236295700073242,-1.0504491329193115,-1.9600000381469727,1.1200000047683716,-0.07000000029802322,105
16:13:37:22,-0.04744672775268555,0.057525634765625,0.048166871070861816,-2.8594231605529785,-9.152545928955078,-0.9643075466156006,-1.1200000047683716,1.5399999618530273,1.8200000524520874,105
16:13:37:64,0.03287029266357422,-0.015236854553222656,-0.06100797653198242,-2.770888566970825,-9.229117393493652,-1.0887343883514404,-2.380000114440918,1.8899999856948853,2.450000047683716,105
16:13:37:104,0.02821040153503418,-0.09067344665527344,0.010535717010498047,-2.768495798110962,-9.327221870422363,-1.0145567655563354,-1.8200000524520874,2.7300000190734863,2.5899999141693115,105
16:13:37:143,0.005340099334716797,-0.01702594757080078,-0.04899919033050537,-2.7900311946868896,-9.257830619812012,-1.0863415002822876,-1.6800000667572021,3.009999990463257,2.1700000762939453,105
16:13:37:184,-0.001470804214477539,-0.162933349609375,-0.06599891185760498,-2.7972097396850586,-9.44447135925293,-1.1198409795761108,-0.6299999952316284,2.5899999141693115,0.9800000190734863,105
16:13:37:222,-0.006919384002685547,0.015137672424316406,-0.03365647792816162,-2.8043880462646484,-9.262616157531738,-1.0959126949310303,0.7699999809265137,2.5199999809265137,-0.7699999809265137,105
16:13:37:263,0.027006864547729492,-0.15634441375732422,-0.1341235637664795,-2.7637100219726562,-9.473184585571289,-1.2299107313156128,-0.2800000011920929,1.8899999856948853,-1.2599999904632568,105
16:13:37:303,0.0388338565826416,-0.04467582702636719,-0.024985909461975098,-2.7421746253967285,-9.372685432434082,-1.1270195245742798,1.8899999856948853,2.940000057220459,-2.0299999713897705,105
16:13:37:345,0.12103724479675293,-0.0012845993041992188,-0.08698773384094238,-2.629711866378784,-9.329615592956543,-1.210768222808838,3.430000066757202,3.569999933242798,-2.7300000190734863,105
16:13:37:383,0.0508875846862793,0.1482839584350586,-0.04087638854980469,-2.6871397495269775,-9.142975807189941,-1.1748759746551514,2.240000009536743,4.480000019073486,-3.8499999046325684,105
16:13:37:424,0.15173697471618652,0.15308380126953125,-0.02504408359527588,-2.548356056213379,-9.099905014038086,-1.1653046607971191,1.4700000286102295,4.829999923706055,-3.8499999046325684,105
16:13:37:463,0.056304931640625,0.06695365905761719,0.058449387550354004,-2.629711866378784,-9.169296264648438,-1.0671988725662231,0.3499999940395355,3.640000104904175,-2.380000114440918,105
16:13:37:504,0.06035780906677246,-0.06129264831542969,0.0237884521484375,-2.610569477081299,-9.3128662109375,-1.0959126949310303,1.0499999523162842,2.240000009536743,-0.6299999952316284,105
16:13:37:544,0.021486759185791016,-0.1313467025756836,0.013287901878356934,-2.644068956375122,-9.415757179260254,-1.1030912399291992,0.21000000834465027,2.5899999141693115,-0.6299999952316284,105
16:13:37:583,0.06313180923461914,-0.078277587890625,0.05465829372406006,-2.5866410732269287,-9.382257461547852,-1.0480562448501587,1.8200000524520874,3.430000066757202,-0.42000001668930054,105
16:13:37:624,0.023705720901489258,-0.053050994873046875,-0.029015302658081055,-2.620140790939331,-9.370293617248535,-1.1389836072921753,2.1700000762939453,3.7100000381469727,0.49000000953674316,105
16:13:37:663,-0.015491962432861328,-0.01755523681640625,0.04952967166900635,-2.6632115840911865,-9.339186668395996,-1.0480562448501587,1.8200000524520874,4.550000190734863,1.3300000429153442,105
16:13:37:702,-0.07556390762329102,0.07784080505371094,0.10087990760803223,-2.7421746253967285,-9.22433090209961,-0.97148597240448,1.75,4.269999980926514,1.399999976158142,105
16:13:37:744,-0.03748035430908203,0.1426715850830078,-0.022665977478027344,-2.71346116065979,-9.123832702636719,-1.1006983518600464,3.569999933242798,6.650000095367432,1.6100000143051147,105
16:13:37:784,0.03127241134643555,0.06436634063720703,-0.06216073036193848,-2.636890411376953,-9.186046600341797,-1.155733346939087,3.569999933242798,7.420000076293945,1.9600000381469727,105
16:13:37:824,0.04416036605834961,-0.03081989288330078,-0.043985843658447266,-2.612962245941162,-9.28893756866455,-1.1485549211502075,-0.2800000011920929,5.25,0.7699999809265137,105
16:13:37:863,-0.10058403015136719,0.07488536834716797,-0.03327441215515137,-2.7828526496887207,-9.164510726928711,-1.1461620330810547,-1.399999976158142,1.9600000381469727,-0.49000000953674316,105
16:13:37:904,-0.06898188591003418,-0.07409000396728516,0.05377936363220215,-2.768495798110962,-9.332008361816406,-1.0456634759902954,-5.460000038146973,-0.07000000029802322,-0.2800000011920929,105
16:13:37:944,-0.02455735206604004,-0.12818527221679688,0.029623746871948242,-2.730210542678833,-9.418149948120117,-1.062413215637207,-4.619999885559082,-0.49000000953674316,0.49000000953674316,105
16:13:37:984,0.07798147201538086,-0.12743377685546875,0.008384943008422852,-2.6081764698028564,-9.449256896972656,-1.0815558433532715,-1.0499999523162842,0.9800000190734863,1.3300000429153442,105
16:13:38:24,0.010700225830078125,0.07799339294433594,-0.03731989860534668,-2.6727826595306396,-9.22433090209961,-1.1365907192230225,1.4700000286102295,3.0799999237060547,1.6800000667572021,104
16:13:38:63,-0.008668184280395508,0.09876537322998047,-0.08919787406921387,-2.6943180561065674,-9.17886734008789,-1.210768222808838,0.42000001668930054,2.380000114440918,1.2599999904632568,104
16:13:38:105,-0.020334720611572266,-0.0569000244140625,-0.08284389972686768,-2.7110681533813477,-9.34875774383545,-1.2251251935958862,-1.5399999618530273,0.42000001668930054,0.5600000023841858,104
16:13:38:144,-0.006696224212646484,-0.053177833557128906,-0.04330408573150635,-2.699103832244873,-9.358329772949219,-1.196411371231079,-1.5399999618530273,-1.190000057220459,-0.21000000834465027,104
16:13:38:184,-0.02832818031311035,-0.046370506286621094,-0.005929350852966309,-2.7278177738189697,-9.363115310668945,-1.160519003868103,-0.5600000023841858,-1.8899999856948853,-0.3499999940395355,104
16:13:38:224,0.048165082931518555,0.03181648254394531,-0.04302859306335449,-2.6392831802368164,-9.276973724365234,-1.2083754539489746,0.2800000011920929,-1.6800000667572021,-0.3499999940395355,104
16:13:38:265,0.06533145904541016,0.04268169403076172,-0.0746222734451294,-2.6057839393615723,-9.255437850952148,-1.2586246728897095,0.5600000023841858,-1.1200000047683716,-0.42000001668930054,104
16:13:38:304,0.05609393119812012,0.0016031265258789062,-0.008012890815734863,-2.6009981632232666,-9.29611587524414,-1.1940184831619263,0.5600000023841858,-1.2599999904632568,-0.49000000953674316,104
16:13:38:346,0.002761363983154297,0.020424842834472656,0.043360352516174316,-2.6536402702331543,-9.272188186645508,-1.131805181503296,0.8400000333786011,-2.1700000762939453,-0.14000000059604645,104
16:13:38:383,0.08643651008605957,0.025911331176757812,-0.026567935943603516,-2.548356056213379,-9.260223388671875,-1.2083754539489746,0.07000000029802322,-2.940000057220459,-0.14000000059604645,104
16:13:38:425,0.06723499298095703,-0.007985115051269531,-0.011683106422424316,-2.550748825073242,-9.29611587524414,-1.196411371231079,0.07000000029802322,-3.009999990463257,-0.49000000953674316,104
16:13:38:463,0.07675909996032715,-0.03893089294433594,0.03276717662811279,-2.5220348834991455,-9.336793899536133,-1.1437692642211914,0.49000000953674316,-3.009999990463257,-0.9800000190734863,104
16:13:38:505,0.042264699935913086,-0.08474349975585938,-0.00824284553527832,-2.5459630489349365,-9.403792381286621,-1.1868400573730469,0.49000000953674316,-2.5899999141693115,-0.9100000262260437,104
16:13:38:545,0.047211408615112305,-0.07545185089111328,0.0048912763595581055,-2.5292134284973145,-9.413363456726074,-1.1724830865859985,1.8899999856948853,-1.8200000524520874,-0.8400000333786011,104
16:13:38:584,-0.015830039978027344,0.05449390411376953,-0.017143845558166504,-2.596212387084961,-9.269794464111328,-1.1988041400909424,1.9600000381469727,-1.2599999904632568,-0.6299999952316284,104
16:13:38:625,-0.001178741455078125,0.05699443817138672,0.007341742515563965,-2.5818557739257812,-9.253045082092285,-1.1724830865859985,1.3300000429153442,-0.7699999809265137,-0.3499999940395355,104
16:13:38:664,0.04691362380981445,-0.07117462158203125,-0.030497431755065918,-2.5220348834991455,-9.399007797241211,-1.2179466485977173,1.6100000143051147,-0.5600000023841858,-0.6299999952316284,104
16:13:38:704,0.020302534103393555,0.11342906951904297,-0.03205513954162598,-2.5435702800750732,-9.186046600341797,-1.227518081665039,2.309999942779541,0.14000000059604645,-0.6299999952316284,104
16:13:38:746,-0.000986337661743164,0.06202888488769531,0.056668996810913086,-2.565105676651001,-9.221939086914062,-1.124626636505127,0.5600000023841858,-0.14000000059604645,-0.42000001668930054,104
16:13:38:784,-0.035245656967163086,-0.07863140106201172,-0.017835378646850586,-2.6081764698028564,-9.382257461547852,-1.2035897970199585,-0.49000000953674316,-1.0499999523162842,-0.5600000023841858,104
16:13:38:825,-0.07031035423278809,0.0155792236328125,0.02210259437561035,-2.6608188152313232,-9.284152030944824,-1.1581261157989502,-1.5399999618530273,-1.6800000667572021,-0.9100000262260437,104
16:13:38:864,0.024150371551513672,-0.096649169921875,0.015767812728881836,-2.5603203773498535,-9.42054271697998,-1.160519003868103,-1.3300000429153442,-2.0299999713897705,-1.4700000286102295,104
16:13:38:906,0.02314901351928711,-0.025634765625,0.06429934501647949,-2.555534601211548,-9.355937004089355,-1.0959126949310303,-1.3300000429153442,-1.8899999856948853,-1.6800000667572021,104
16:13:38:945,0.06828999519348145,-0.06070709228515625,0.04569661617279053,-2.493321180343628,-9.4061861038208,-1.1030912399291992,0.07000000029802322,-1.75,-1.6800000667572021,104
16:13:38:985,0.031661033630371094,-0.06770801544189453,0.04230010509490967,-2.5220348834991455,-9.430113792419434,-1.0959126949310303,0.699999988079071,-1.0499999523162842,-1.6100000143051147,104
16:13:39:25,0.04829978942871094,0.02048969268798828,0.0223543643951416,-2.493321180343628,-9.336793899536133,-1.1102697849273682,2.1700000762939453,-0.49000000953674316,-1.2599999904632568,103
16:13:39:64,0.00035452842712402344,0.02596282958984375,0.037026166915893555,-2.541177749633789,-9.324830055236816,-1.0863415002822876,1.6800000667572021,-0.9100000262260437,-0.8400000333786011,103
16:13:39:104,-0.0035445690155029297,0.015027999877929688,0.029620885848999023,-2.5459630489349365,-9.332008361816406,-1.0863415002822876,1.5399999618530273,-1.8200000524520874,-0.699999988079071,103
16:13:39:147,-0.021978378295898438,0.0043659210205078125,-0.03373098373413086,-2.5698914527893066,-9.34157943725586,-1.1581261157989502,0.2800000011920929,-2.450000047683716,-0.8400000333786011,103
16:13:39:185,0.016873836517333984,0.014978408813476562,0.03618574142456055,-2.526820659637451,-9.327221870422363,-1.0791629552841187,-0.07000000029802322,-3.009999990463257,-0.699999988079071,103
16:13:39:226,0.04412698745727539,-0.09330177307128906,0.05957674980163574,-2.4885356426239014,-9.458827018737793,-1.0408778190612793,0.2800000011920929,-2.799999952316284,-0.14000000059604645,103
16:13:39:264,0.004673480987548828,0.03064250946044922,0.07254672050476074,-2.526820659637451,-9.327221870422363,-1.0097711086273193,0.9100000262260437,-2.6600000858306885,0.07000000029802322,103
16:13:39:305,0.02862405776977539,0.08385562896728516,0.05612301826477051,-2.4957141876220703,-9.253045082092285,-1.0121639966964722,0.699999988079071,-3.0799999237060547,0.2800000011920929,103
16:13:39:345,0.03629922866821289,-0.030542373657226562,0.02767014503479004,-2.47896409034729,-9.375079154968262,-1.0336993932724,-0.9800000190734863,-3.640000104904175,0.14000000059604645,103
16:13:39:386,0.011811017990112305,-0.011034011840820312,0.04319298267364502,-2.5004994869232178,-9.358329772949219,-1.007378339767456,-1.4700000286102295,-3.7799999713897705,0.14000000059604645,103
16:13:39:424,-0.003951072692871094,-0.010741233825683594,-0.011387825012207031,-2.517249345779419,-9.360722541809082,-1.0648061037063599,-1.6100000143051147,-3.569999933242798,0.2800000011920929,103
16:13:39:466,0.07532358169555664,0.012464523315429688,0.03491771221160889,-2.4191436767578125,-9.33440113067627,-1.0097711086273193,-1.5399999618530273,-3.569999933242798,0.699999988079071,103
16:13:39:505,0.04877328872680664,-0.03788566589355469,0.056648075580596924,-2.4335007667541504,-9.394222259521484,-0.973878800868988,-1.3300000429153442,-3.2200000286102295,0.699999988079071,103
16:13:39:545,0.004561901092529297,-0.0417938232421875,0.02043318748474121,-2.476571559906006,-9.408578872680664,-1.0049854516983032,-1.4700000286102295,-2.940000057220459,0.9100000262260437,103
16:13:39:584,0.024706363677978516,-0.00089263916015625,-0.0008817911148071289,-2.4502503871917725,-9.367900848388672,-1.026520848274231,-0.6299999952316284,-2.450000047683716,0.7699999809265137,103
16:13:39:625,0.017850637435913086,0.0701131820678711,-0.019848108291625977,-2.452643394470215,-9.279366493225098,-1.0504491329193115,-0.5600000023841858,-1.9600000381469727,1.1200000047683716,103
16:13:39:664,0.0027952194213867188,0.10777568817138672,-0.01204991340637207,-2.4670000076293945,-9.214759826660156,-1.0456634759902954,-1.0499999523162842,-1.399999976158142,1.4700000286102295,103
16:13:39:705,0.04052114486694336,-0.030550003051757812,-0.03643953800201416,-2.4191436767578125,-9.360722541809082,-1.0791629552841187,-1.1200000047683716,-0.8400000333786011,1.6100000143051147,103
16:13:39:748,-0.02501082420349121,-0.001468658447265625,-0.019580364227294922,-2.4909284114837646,-9.332008361816406,-1.0671988725662231,-2.1700000762939453,-0.5600000023841858,1.8899999856948853,103
16:13:39:784,-0.025751590728759766,-0.07774543762207031,-0.05394947528839111,-2.4981069564819336,-9.42772102355957,-1.1150553226470947,-1.3300000429153442,0.07000000029802322,1.8200000524520874,103
16:13:39:825,-0.03782963752746582,0.04691600799560547,-0.01061713695526123,-2.5196423530578613,-9.291330337524414,-1.0743772983551025,-1.2599999904632568,0.699999988079071,1.75,103
16:13:39:864,-0.022606372833251953,-0.0007524490356445312,-0.041036128997802734,-2.51007080078125,-9.339186668395996,-1.1150553226470947,-1.9600000381469727,1.0499999523162842,1.75,103
16:13:39:908,-0.002771139144897461,-0.05228614807128906,-0.03474307060241699,-2.4909284114837646,-9.403792381286621,-1.117448091506958,-1.3300000429153442,1.190000057220459,0.9100000262260437,103
16:13:39:945,-0.025187969207763672,-0.05140113830566406,-0.04502284526824951,-2.5196423530578613,-9.415757179260254,-1.1389836072921753,-0.8400000333786011,1.190000057220459,0.42000001668930054,103
16:13:39:984,-0.05460691452026367,-0.058348655700683594,-0.06473219394683838,-2.562713146209717,-9.437292098999023,-1.1748759746551514,-0.49000000953674316,1.6800000667572021,0.3499999940395355,103
16:13:40:25,-0.07239937782287598,-0.0007371902465820312,0.02095615863800049,-2.5986053943634033,-9.379864692687988,-1.0839486122131348,-0.5600000023841858,1.75,0.14000000059604645,102
16:13:40:64,-0.04260563850402832,0.10469436645507812,-0.0789480209350586,-2.579463005065918,-9.248259544372559,-1.2035897970199585,-0.699999988079071,1.5399999618530273,-0.3499999940395355,102
16:13:40:105,-0.04748392105102539,0.005270957946777344,-0.04210162162780762,-2.596212387084961,-9.346364974975586,-1.1772687435150146,-1.399999976158142,1.5399999618530273,-0.699999988079071,102
16:13:40:145,-0.02267313003540039,-0.009183883666992188,-0.1102515459060669,-2.5770699977874756,-9.363115310668945,-1.2729815244674683,-0.7699999809265137,1.8899999856948853,-0.8400000333786011,102
16:13:40:185,-0.01048135757446289,-0.024575233459472656,-0.1035153865814209,-2.5674986839294434,-9.384650230407715,-1.2921242713928223,0.14000000059604645,1.9600000381469727,-0.9800000190734863,102
16:13:40:225,0.06435656547546387,0.020539283752441406,-0.0004991292953491211,-2.476571559906006,-9.33440113067627,-1.1892328262329102,-0.14000000059604645,1.4700000286102295,-1.6100000143051147,102
16:13:40:265,0.04382824897766113,0.022174835205078125,-0.07505536079406738,-2.486142873764038,-9.327221870422363,-1.2825528383255005,0.14000000059604645,1.4700000286102295,-1.2599999904632568,102
16:13:40:304,0.008263111114501953,0.00051116943359375,-0.07918691635131836,-2.5196423530578613,-9.34875774383545,-1.306481122970581,0.2800000011920929,2.240000009536743,-0.8400000333786011,102
16:13:40:347,0.05255270004272461,0.004237174987792969,-0.007836103439331055,-2.462214469909668,-9.343972206115723,-1.2370892763137817,1.0499999523162842,2.6600000858306885,-0.5600000023841858,102
16:13:40:384,0.013328075408935547,0.10676002502441406,0.014787912368774414,-2.4981069564819336,-9.214759826660156,-1.210768222808838,0.9100000262260437,2.870000123977661,-0.5600000023841858,102
16:13:40:425,-0.01422262191772461,0.005008697509765625,0.013744592666625977,-2.5292134284973145,-9.315258979797363,-1.2083754539489746,-0.9800000190734863,2.309999942779541,0.07000000029802322,102
16:13:40:464,0.040306806564331055,-0.08979129791259766,-0.04834628105163574,-2.4646072387695312,-9.432506561279297,-1.2825528383255005,-0.8400000333786011,2.240000009536743,-0.07000000029802322,102
16:13:40:505,0.020760059356689453,-0.010577201843261719,0.014922142028808594,-2.47896409034729,-9.355937004089355,-1.215553879737854,-0.3499999940395355,2.309999942779541,-0.2800000011920929,102
16:13:40:546,0.10083532333374023,-0.07354545593261719,-0.05123269557952881,-2.3736801147460938,-9.437292098999023,-1.294516921043396,1.6100000143051147,3.009999990463257,-0.14000000059604645,102
16:13:40:586,0.04046893119812012,-0.03586578369140625,0.04898381233215332,-2.423929214477539,-9.408578872680664,-1.1820544004440308,2.940000057220459,3.1500000953674316,-0.21000000834465027,102
16:13:40:624,0.04577493667602539,0.026821136474609375,0.04110133647918701,-2.407179594039917,-9.339186668395996,-1.179661512374878,3.2200000286102295,3.0799999237060547,-0.3499999940395355,102
16:13:40:666,0.01364898681640625,0.015714645385742188,0.019481182098388672,-2.4358932971954346,-9.346364974975586,-1.196411371231079,3.2899999618530273,2.799999952316284,-0.21000000834465027,102
16:13:40:705,-0.029280424118041992,0.08531379699707031,0.011756539344787598,-2.486142873764038,-9.255437850952148,-1.2011969089508057,2.870000123977661,2.5199999809265137,0.21000000834465027,102
16:13:40:747,-0.010024309158325195,0.09887886047363281,0.03429055213928223,-2.469392776489258,-9.21715259552002,-1.1700903177261353,1.6100000143051147,2.1700000762939453,0.8400000333786011,102
16:13:40:787,-0.013762474060058594,0.00061798095703125,0.025518178939819336,-2.476571559906006,-9.315258979797363,-1.1724830865859985,0.699999988079071,2.309999942779541,1.3300000429153442,102
16:13:40:826,-0.04355216026306152,0.023466110229492188,0.06827104091644287,-2.517249345779419,-9.286543846130371,-1.112662434577942,0.42000001668930054,2.450000047683716,1.6800000667572021,102
16:13:40:864,0.014928817749023438,-0.008028030395507812,-0.03918182849884033,-2.455036163330078,-9.32004451751709,-1.2299107313156128,0.14000000059604645,3.009999990463257,1.9600000381469727,102
16:13:40:942,-0.022513628005981445,0.0031490325927734375,0.012682318687438965,-2.4981069564819336,-9.308080673217773,-1.1748759746551514,0.42000001668930054,3.7100000381469727,2.240000009536743,102
16:13:40:947,-0.03141069412231445,-0.003223419189453125,0.058002352714538574,-2.5148565769195557,-9.315258979797363,-1.1150553226470947,0.2800000011920929,2.940000057220459,2.309999942779541,102
16:13:40:984,-0.04618549346923828,0.05293464660644531,0.03683054447174072,-2.541177749633789,-9.245866775512695,-1.1270195245742798,0.699999988079071,2.0299999713897705,1.75,102
16:13:41:22,-0.04269099235534668,-0.05336570739746094,-0.037534475326538086,-2.548356056213379,-9.365508079528809,-1.210768222808838,0.07000000029802322,1.3300000429153442,1.190000057220459,102
16:13:41:65,-0.016924381256103516,0.005164146423339844,-0.0032279491424560547,-2.526820659637451,-9.305686950683594,-1.1772687435150146,-0.14000000059604645,0.7699999809265137,0.8400000333786011,102
16:13:41:104,0.040059804916381836,-0.037982940673828125,0.0012462139129638672,-2.4598214626312256,-9.358329772949219,-1.1724830865859985,0.21000000834465027,0.2800000011920929,0.2800000011920929,102
16:13:41:145,0.028219223022460938,0.019384384155273438,-0.010488629341125488,-2.4646072387695312,-9.29611587524414,-1.1868400573730469,-0.14000000059604645,0.14000000059604645,-0.21000000834465027,102
16:13:41:186,0.049375057220458984,-0.06297779083251953,-0.03327620029449463,-2.431107759475708,-9.394222259521484,-1.2179466485977173,0.21000000834465027,0.07000000029802322,-0.6299999952316284,102
16:13:41:225,0.060556888580322266,0.007045745849609375,0.0288923978805542,-2.4047868251800537,-9.322437286376953,-1.1485549211502075,0.42000001668930054,0.5600000023841858,-0.699999988079071,102
16:13:41:268,0.05801677703857422,-0.011590957641601562,-0.07642734050750732,-2.392822742462158,-9.343972206115723,-1.2729815244674683,0.07000000029802322,1.0499999523162842,-0.3499999940395355,102
16:13:41:304,0.046413421630859375,0.06346893310546875,-0.011371254920959473,-2.392822742462158,-9.253045082092285,-1.210768222808838,-0.5600000023841858,2.1700000762939453,-0.21000000834465027,102
16:13:41:345,0.023730993270874023,-0.056423187255859375,-0.030153870582580566,-2.4095723628997803,-9.387042999267578,-1.2370892763137817,-0.14000000059604645,2.940000057220459,-0.21000000834465027,102
16:13:41:386,0.028556108474731445,-0.003025054931640625,-0.020294547080993652,-2.3976082801818848,-9.33440113067627,-1.2323036193847656,0.3499999940395355,3.3600001335144043,0.14000000059604645,102
16:13:41:424,-0.023097515106201172,-0.029219627380371094,-0.014321327209472656,-2.455036163330078,-9.367900848388672,-1.2299107313156128,0.42000001668930054,3.569999933242798,0.21000000834465027,102
16:13:41:466,-0.018477916717529297,0.04362297058105469,0.028742313385009766,-2.455036163330078,-9.284152030944824,-1.179661512374878,1.0499999523162842,3.569999933242798,0.2800000011920929,102
16:13:41:504,0.0043604373931884766,0.023412704467773438,0.026822328567504883,-2.431107759475708,-9.298508644104004,-1.1748759746551514,0.2800000011920929,3.1500000953674316,0.2800000011920929,102
16:13:41:546,-0.05585360527038574,-0.06741142272949219,-0.051283955574035645,-2.5052852630615234,-9.4061861038208,-1.2658032178878784,0.8400000333786011,3.430000066757202,0.2800000011920929,102
16:13:41:585,-0.004483699798583984,-0.0003299713134765625,-0.03911280632019043,-2.455036163330078,-9.339186668395996,-1.2634103298187256,0.42000001668930054,3.1500000953674316,0.2800000011920929,102
16:13:41:625,-0.04187178611755371,-0.042377471923828125,0.0031664371490478516,-2.502892255783081,-9.391828536987305,-1.2203395366668701,1.190000057220459,2.940000057220459,0.14000000059604645,102
16:13:41:664,-0.04689741134643555,0.06181049346923828,-0.003209710121154785,-2.5196423530578613,-9.272188186645508,-1.227518081665039,1.190000057220459,2.6600000858306885,0.42000001668930054,102
16:13:41:706,-0.010718345642089844,0.01499176025390625,0.04337441921234131,-2.486142873764038,-9.315258979797363,-1.1700903177261353,0.699999988079071,2.1700000762939453,0.49000000953674316,102
16:13:41:745,-0.002831697463989258,-0.02820587158203125,-0.06484174728393555,-2.47896409034729,-9.365508079528809,-1.294516921043396,0.8400000333786011,1.75,0.3499999940395355,102
16:13:41:786,-0.05012202262878418,0.055919647216796875,-0.004016995429992676,-2.538784980773926,-9.267402648925781,-1.234696388244629,1.1200000047683716,1.6100000143051147,0.49000000953674316,102
16:13:41:824,-0.015212059020996094,0.037078857421875,0.025500178337097168,-2.5076780319213867,-9.276973724365234,-1.1988041400909424,0.49000000953674316,1.190000057220459,0.699999988079071,102
16:13:41:866,-0.017912626266479492,-0.03542137145996094,0.012743115425109863,-2.5148565769195557,-9.358329772949219,-1.2083754539489746,-0.2800000011920929,0.2800000011920929,0.9100000262260437,102
16:13:41:904,-0.008587360382080078,0.023347854614257812,0.0006232261657714844,-2.5076780319213867,-9.293723106384277,-1.2203395366668701,-0.7699999809265137,-0.14000000059604645,0.7699999809265137,102
16:13:41:947,0.021843910217285156,-0.03300666809082031,-0.0129011869430542,-2.4717857837677,-9.358329772949219,-1.2370892763137817,-1.399999976158142,-0.5600000023841858,0.8400000333786011,102
16:13:41:985,0.009818077087402344,-0.0627756118774414,-0.04669177532196045,-2.4813570976257324,-9.403792381286621,-1.2825528383255005,-0.699999988079071,-0.8400000333786011,0.8400000333786011,102
16:13:42:26,0.05762529373168945,0.04740619659423828,0.033474087715148926,-2.4191436767578125,-9.281759262084961,-1.1940184831619263,-0.9100000262260437,-0.9100000262260437,1.0499999523162842,103
16:13:42:65,0.028872013092041016,-0.019502639770507812,-0.032562851905822754,-2.4406790733337402,-9.353544235229492,-1.2681961059570312,-1.2599999904632568,-0.9800000190734863,0.9100000262260437,103
16:13:42:106,0.038411617279052734,-0.0002880096435546875,-0.029878616333007812,-2.421536445617676,-9.33440113067627,-1.2729815244674683,-1.0499999523162842,-0.7699999809265137,0.5600000023841858,103
16:13:42:146,0.023072242736816406,-0.07105827331542969,-0.06984519958496094,-2.431107759475708,-9.422935485839844,-1.3304094076156616,-1.2599999904632568,-0.7699999809265137,0.49000000953674316,103
16:13:42:187,-0.0064275264739990234,-0.014733314514160156,-0.017590880393981934,-2.462214469909668,-9.370293617248535,-1.2825528383255005,-0.6299999952316284,-0.42000001668930054,0.49000000953674316,103
16:13:42:225,-0.026198863983154297,0.022670745849609375,-0.008329987525939941,-2.4885356426239014,-9.327221870422363,-1.275374412536621,-0.9100000262260437,-0.3499999940395355,0.3499999940395355,103
16:13:42:267,0.02881169319152832,0.02770709991455078,-0.012406706809997559,-2.4263222217559814,-9.315258979797363,-1.2825528383255005,-1.0499999523162842,-0.42000001668930054,0.49000000953674316,103
16:13:42:305,-0.03054976463317871,0.0011091232299804688,-0.04821062088012695,-2.493321180343628,-9.34157943725586,-1.3304094076156616,-0.42000001668930054,-0.49000000953674316,0.6299999952316284,103
16:13:42:347,-0.037839412689208984,0.00662994384765625,-0.03091144561767578,-2.51007080078125,-9.33440113067627,-1.3208380937576294,-0.42000001668930054,-0.3499999940395355,0.6299999952316284,103
16:13:42:385,-0.014957666397094727,0.024446487426757812,-0.0017580986022949219,-2.4909284114837646,-9.31047248840332,-1.2921242713928223,-0.2800000011920929,-0.7699999809265137,0.699999988079071,103
16:13:42:426,-0.03302288055419922,-0.0015001296997070312,-0.007149219512939453,-2.517249345779419,-9.336793899536133,-1.2993026971817017,-1.0499999523162842,-0.8400000333786011,0.9100000262260437,103
16:13:42:466,0.011867046356201172,0.004542350769042969,-0.049747347831726074,-2.469392776489258,-9.329615592956543,-1.3543376922607422,-0.9100000262260437,-1.190000057220459,0.8400000333786011,103
16:13:42:507,-0.06516265869140625,0.013205528259277344,-0.030226469039916992,-2.562713146209717,-9.31765079498291,-1.3423734903335571,-2.0299999713897705,-1.75,0.8400000333786011,103
16:13:42:546,-0.11721467971801758,-0.03729248046875,-0.07203757762908936,-2.644068956375122,-9.377471923828125,-1.4021940231323242,-2.1700000762939453,-2.0299999713897705,1.1200000047683716,103
16:13:42:587,-0.040172576904296875,0.042908668518066406,-0.05571591854095459,-2.5770699977874756,-9.286543846130371,-1.3998013734817505,-0.5600000023841858,-2.0299999713897705,1.3300000429153442,103
16:13:42:625,-0.028309345245361328,0.040068626403808594,0.022426486015319824,-2.57228422164917,-9.279366493225098,-1.3160523176193237,-1.6100000143051147,-2.450000047683716,1.4700000286102295,103
16:13:42:667,0.046265602111816406,-0.056000709533691406,-0.029915452003479004,-2.486142873764038,-9.389435768127441,-1.37587308883667,-1.2599999904632568,-2.7300000190734863,1.190000057220459,103
16:13:42:705,0.050412654876708984,0.03942680358886719,0.0028673410415649414,-2.469392776489258,-9.284152030944824,-1.3423734903335571,-1.6800000667572021,-3.2200000286102295,0.9100000262260437,103
16:13:42:748,0.019273042678833008,0.012398719787597656,-0.018762946128845215,-2.4957141876220703,-9.308080673217773,-1.368694543838501,-2.240000009536743,-3.2899999618530273,1.3300000429153442,103
16:13:42:786,0.015418529510498047,-0.03219413757324219,-0.016924619674682617,-2.4957141876220703,-9.360722541809082,-1.3710873126983643,-1.9600000381469727,-3.009999990463257,1.190000057220459,103
16:13:42:827,0.008506536483764648,-0.02958393096923828,-0.007796883583068848,-2.5004994869232178,-9.365508079528809,-1.3639088869094849,-0.6299999952316284,-2.7300000190734863,0.9800000190734863,103
16:13:42:865,-0.0008518695831298828,-0.016010284423828125,-0.011980295181274414,-2.51007080078125,-9.355937004089355,-1.3710873126983643,-0.5600000023841858,-2.450000047683716,0.5600000023841858,103
16:13:42:907,0.0031468868255615234,0.06184864044189453,-0.036383867263793945,-2.5052852630615234,-9.262616157531738,-1.4045867919921875,-0.07000000029802322,-1.8899999856948853,0.3499999940395355,103
16:13:42:947,-0.007053852081298828,-0.05006217956542969,-0.021450161933898926,-2.517249345779419,-9.387042999267578,-1.3950155973434448,-0.14000000059604645,-1.4700000286102295,0.2800000011920929,103
16:13:42:988,0.024985074996948242,0.04609107971191406,-0.0018460750579833984,-2.47896409034729,-9.279366493225098,-1.37587308883667,-0.5600000023841858,-1.3300000429153442,0.2800000011920929,103
16:13:43:26,0.012330770492553711,-0.020554542541503906,-0.039761900901794434,-2.4885356426239014,-9.351150512695312,-1.423729419708252,-0.49000000953674316,-0.9800000190734863,0.2800000011920929,103
16:13:43:67,0.00029349327087402344,0.012269973754882812,0.02561819553375244,-2.5004994869232178,-9.315258979797363,-1.3519448041915894,-0.699999988079071,-0.699999988079071,-0.14000000059604645,103
16:13:43:106,0.030862808227539062,-0.018897056579589844,-0.012047767639160156,-2.462214469909668,-9.351150512695312,-1.392622709274292,-0.14000000059604645,0.21000000834465027,-0.14000000059604645,103
16:13:43:148,0.007462024688720703,0.044223785400390625,-0.005809783935546875,-2.4837498664855957,-9.276973724365234,-1.3878371715545654,0.3499999940395355,0.9800000190734863,-0.07000000029802322,103
16:13:43:187,-0.051458120346069336,0.029636383056640625,0.014494776725769043,-2.555534601211548,-9.284152030944824,-1.3639088869094849,-0.49000000953674316,1.190000057220459,0.21000000834465027,103
16:13:43:228,-0.0583949089050293,0.07730865478515625,-0.02668941020965576,-2.5770699977874756,-9.21715259552002,-1.411765456199646,-0.07000000029802322,1.190000057220459,-0.14000000059604645,103
16:13:43:265,0.001140594482421875,0.04078960418701172,-0.009865999221801758,-2.517249345779419,-9.243474006652832,-1.3974084854125977,-1.2599999904632568,0.9800000190734863,-0.14000000059604645,103
16:13:43:307,-0.029715776443481445,-0.04202461242675781,-0.0021500587463378906,-2.555534601211548,-9.336793899536133,-1.3902300596237183,-1.190000057220459,1.1200000047683716,-0.21000000834465027,103
16:13:43:347,-0.008458614349365234,-0.0029916763305664062,0.02507948875427246,-2.5363922119140625,-9.298508644104004,-1.356730580329895,-0.21000000834465027,1.0499999523162842,-0.14000000059604645,103
16:13:43:388,-0.0010237693786621094,0.016748428344726562,0.0009212493896484375,-2.5292134284973145,-9.274580955505371,-1.380658507347107,-0.07000000029802322,1.1200000047683716,-0.21000000834465027,103
16:13:43:426,-0.010390520095825195,0.0019130706787109375,0.0026509761810302734,-2.541177749633789,-9.28893756866455,-1.3782659769058228,0.21000000834465027,1.1200000047683716,0.21000000834465027,103
16:13:43:467,-0.008312463760375977,-0.044411659240722656,-0.04382133483886719,-2.541177749633789,-9.346364974975586,-1.435693621635437,0.5600000023841858,1.1200000047683716,0.3499999940395355,103
16:13:43:506,0.001007080078125,-0.0125579833984375,-0.0006003379821777344,-2.531606435775757,-9.31765079498291,-1.392622709274292,0.699999988079071,0.9100000262260437,0.49000000953674316,103
16:13:43:548,-0.018336772918701172,0.035895347595214844,-0.00048029422760009766,-2.555534601211548,-9.260223388671875,-1.392622709274292,0.49000000953674316,0.699999988079071,0.49000000953674316,103
16:13:43:587,0.0025589466094970703,-0.009569168090820312,0.013015508651733398,-2.53399920463562,-9.308080673217773,-1.37587308883667,0.3499999940395355,0.699999988079071,0.6299999952316284,103
16:13:43:628,-0.034323930740356445,-0.036368370056152344,-0.0144728422164917,-2.579463005065918,-9.343972206115723,-1.4069796800613403,0.42000001668930054,0.5600000023841858,0.6299999952316284,103
16:13:43:667,0.029968738555908203,-0.01952362060546875,-0.03646361827850342,-2.5076780319213867,-9.332008361816406,-1.4380863904953003,1.2599999904632568,0.49000000953674316,0.5600000023841858,103
16:13:43:708,0.010575056076049805,-0.009876251220703125,-0.0004570484161376953,-2.524427890777588,-9.324830055236816,-1.4021940231323242,1.1200000047683716,0.3499999940395355,0.6299999952316284,103
16:13:43:746,0.0008029937744140625,-0.0021572113037109375,0.04557645320892334,-2.53399920463562,-9.31765079498291,-1.34476637840271,0.9800000190734863,0.2800000011920929,0.5600000023841858,103
16:13:43:787,-0.04338526725769043,0.019330978393554688,0.011575818061828613,-2.589033842086792,-9.291330337524414,-1.37587308883667,0.9800000190734863,0.07000000029802322,0.14000000059604645,103
16:13:43:828,0.026547908782958984,-0.015163421630859375,-0.006053328514099121,-2.5124638080596924,-9.329615592956543,-1.3950155973434448,0.7699999809265137,-0.07000000029802322,0.07000000029802322,103
16:13:43:867,-0.0017328262329101562,-0.02361583709716797,0.014299988746643066,-2.541177749633789,-9.343972206115723,-1.3710873126983643,1.6100000143051147,-0.07000000029802322,0.07000000029802322,103
16:13:43:908,0.04072737693786621,0.030878067016601562,0.03249669075012207,-2.4885356426239014,-9.281759262084961,-1.34476637840271,1.8200000524520874,-0.14000000059604645,-0.21000000834465027,103
16:13:43:948,0.019182205200195312,0.06873035430908203,-0.008459329605102539,-2.5052852630615234,-9.226724624633789,-1.3878371715545654,1.1200000047683716,0.07000000029802322,-0.14000000059604645,103
16:13:43:989,0.03065967559814453,0.009042739868164062,0.021946430206298828,-2.486142873764038,-9.284152030944824,-1.3519448041915894,0.699999988079071,0.07000000029802322,-0.21000000834465027,103
16:13:44:27,0.03984212875366211,-0.03296470642089844,-0.02264225482940674,-2.4670000076293945,-9.33440113067627,-1.4021940231323242,0.9800000190734863,0.21000000834465027,-0.3499999940395355,103
16:13:44:68,0.02613091468811035,0.05402660369873047,0.023999929428100586,-2.4741785526275635,-9.233902931213379,-1.3495519161224365,0.9800000190734863,0.14000000059604645,-0.3499999940395355,103
16:13:44:107,0.024733304977416992,-0.04100608825683594,-0.0305708646774292,-2.469392776489258,-9.339186668395996,-1.411765456199646,0.9100000262260437,0.21000000834465027,-0.2800000011920929,103
16:13:44:147,-0.02424144744873047,-0.0040912628173828125,0.00042879581451416016,-2.524427890777588,-9.30329418182373,-1.380658507347107,0.5600000023841858,0.3499999940395355,-0.3499999940395355,103
16:13:44:189,-0.004079103469848633,0.0005550384521484375,-0.005399942398071289,-2.5052852630615234,-9.298508644104004,-1.3878371715545654,0.42000001668930054,0.2800000011920929,-0.49000000953674316,103
16:13:44:227,0.03502202033996582,-0.03209877014160156,-0.0004913806915283203,-2.4574286937713623,-9.339186668395996,-1.3830513954162598,0.7699999809265137,0.3499999940395355,-0.3499999940395355,103
16:13:44:269,0.01844644546508789,0.060461997985839844,0.05703449249267578,-2.469392776489258,-9.231510162353516,-1.3112668991088867,0.3499999940395355,0.21000000834465027,-0.07000000029802322,103
16:13:44:307,0.007100105285644531,-0.035857200622558594,0.016913890838623047,-2.47896409034729,-9.336793899536133,-1.3471590280532837,0.07000000029802322,0.2800000011920929,-0.07000000029802322,103
16:13:44:349,0.04013681411743164,-0.011457443237304688,0.0039598941802978516,-2.4358932971954346,-9.315258979797363,-1.3591231107711792,-0.49000000953674316,0.21000000834465027,0.07000000029802322,103
16:13:44:388,0.03785204887390137,-0.039793968200683594,-0.03320300579071045,-2.4287149906158447,-9.353544235229492,-1.4045867919921875,-0.5600000023841858,0.42000001668930054,0.21000000834465027,103
16:13:44:428,0.005396366119384766,-0.06629085540771484,-0.005505800247192383,-2.4598214626312256,-9.396614074707031,-1.3782659769058228,0.6299999952316284,1.1200000047683716,0.5600000023841858,103
16:13:44:467,0.038773536682128906,0.0024814605712890625,0.047280311584472656,-2.416750907897949,-9.327221870422363,-1.3136597871780396,0.49000000953674316,1.190000057220459,0.699999988079071,103
16:13:44:509,0.011876344680786133,0.0019855499267578125,0.011024832725524902,-2.4406790733337402,-9.327221870422363,-1.3471590280532837,0.6299999952316284,1.190000057220459,0.8400000333786011,103
16:13:44:548,0.022901058197021484,-0.009897232055664062,-0.03137969970703125,-2.423929214477539,-9.34157943725586,-1.3974084854125977,0.49000000953674316,1.3300000429153442,0.9800000190734863,103
16:13:44:589,0.043205976486206055,-0.0844879150390625,-0.009789824485778809,-2.392822742462158,-9.437292098999023,-1.3782659769058228,0.699999988079071,1.6100000143051147,0.7699999809265137,103
16:13:44:627,-0.0037202835083007812,0.0491790771484375,0.032367706298828125,-2.4406790733337402,-9.291330337524414,-1.3280165195465088,0.9800000190734863,2.0999999046325684,1.1200000047683716,103
16:13:44:669,-0.018290042877197266,0.02211475372314453,-0.025790810585021973,-2.4598214626312256,-9.3128662109375,-1.392622709274292,1.75,3.3600001335144043,1.5399999618530273,103
16:13:44:708,0.017910242080688477,-0.00336456298828125,0.015738248825073242,-2.4191436767578125,-9.339186668395996,-1.3471590280532837,2.309999942779541,3.7799999713897705,1.3300000429153442,103
16:13:44:750,-0.031614065170288086,0.012621879577636719,0.04130434989929199,-2.476571559906006,-9.32004451751709,-1.3112668991088867,2.0299999713897705,3.0799999237060547,0.9100000262260437,103
16:13:44:788,-0.042519569396972656,0.0617828369140625,-0.039698243141174316,-2.4981069564819336,-9.255437850952148,-1.4021940231323242,1.6800000667572021,3.0799999237060547,0.699999988079071,103
16:13:44:829,-0.08761477470397949,0.04942607879638672,0.07352554798126221,-2.565105676651001,-9.255437850952148,-1.2705888748168945,0.9800000190734863,2.870000123977661,0.8400000333786011,103
16:13:44:868,-0.07774901390075684,-0.004487037658691406,0.058820486068725586,-2.5746772289276123,-9.31047248840332,-1.2705888748168945,1.0499999523162842,2.450000047683716,0.6299999952316284,103
16:13:44:909,-0.0736844539642334,-0.01507568359375,-0.006542682647705078,-2.589033842086792,-9.324830055236816,-1.3375877141952515,0.8400000333786011,1.8200000524520874,-0.14000000059604645,103
16:13:44:949,-0.06851887702941895,-0.031202316284179688,0.004337191581726074,-2.6009981632232666,-9.34875774383545,-1.325623631477356,0.2800000011920929,1.2599999904632568,-0.21000000834465027,103
16:13:44:990,-0.006958723068237305,0.011408805847167969,-0.00035893917083740234,-2.541177749633789,-9.30329418182373,-1.3304094076156616,0.5600000023841858,0.42000001668930054,-0.3499999940395355,103
16:13:45:28,-0.03428077697753906,0.020612716674804688,0.0284268856048584,-2.5770699977874756,-9.28893756866455,-1.294516921043396,-0.14000000059604645,-0.5600000023841858,-0.5600000023841858,103
16:13:45:69,0.018517494201660156,-0.06007957458496094,-0.017458081245422363,-2.5196423530578613,-9.384650230407715,-1.34476637840271,-0.5600000023841858,-1.1200000047683716,-0.7699999809265137,103
16:13:45:108,0.03204226493835449,-0.04040718078613281,-0.03885185718536377,-2.4981069564819336,-9.375079154968262,-1.37587308883667,-0.6299999952316284,-1.399999976158142,-0.8400000333786011,103
16:13:45:150,0.06009054183959961,0.021272659301757812,0.030174851417541504,-2.455036163330078,-9.308080673217773,-1.2993026971817017,-0.42000001668930054,-1.4700000286102295,-0.9100000262260437,103
16:13:45:189,0.11315727233886719,0.009362220764160156,0.010740160942077637,-2.3736801147460938,-9.31765079498291,-1.3160523176193237,-0.699999988079071,-0.9100000262260437,-0.6299999952316284,103
16:13:45:229,0.12689661979675293,-0.0212249755859375,0.02390611171722412,-2.328216552734375,-9.353544235229492,-1.2969098091125488,-0.3499999940395355,-0.42000001668930054,-0.699999988079071,103
16:13:45:268,0.06897497177124023,-0.015065193176269531,0.003810882568359375,-2.368894338607788,-9.351150512695312,-1.3160523176193237,-0.3499999940395355,0.07000000029802322,-0.5600000023841858,103
16:13:45:309,-0.01181936264038086,0.028146743774414062,-0.03715085983276367,-2.452643394470215,-9.300901412963867,-1.3663017749786377,0.14000000059604645,0.14000000059604645,-0.2800000011920929,103
16:13:45:350,-0.034340620040893555,-0.05405235290527344,0.0047359466552734375,-2.4837498664855957,-9.396614074707031,-1.3232309818267822,-0.2800000011920929,0.3499999940395355,0.21000000834465027,103
16:13:45:389,0.09886860847473145,0.07544136047363281,-0.10340964794158936,-2.3258235454559326,-9.248259544372559,-1.4572290182113647,0.49000000953674316,0.3499999940395355,0.42000001668930054,103
16:13:45:429,0.023581266403198242,0.03163909912109375,0.06084167957305908,-2.3952155113220215,-9.284152030944824,-1.277767300605774,0.5600000023841858,0.42000001668930054,0.5600000023841858,103
16:13:45:468,0.009293794631958008,-0.03977394104003906,-0.0010973215103149414,-2.407179594039917,-9.365508079528809,-1.3399806022644043,0.07000000029802322,0.14000000059604645,0.49000000953674316,103
16:13:45:509,-0.017450332641601562,-0.016504287719726562,-0.03150618076324463,-2.438286304473877,-9.346364974975586,-1.3782659769058228,0.42000001668930054,0.14000000059604645,0.2800000011920929,103
16:13:45:549,-0.03310275077819824,-0.05531787872314453,-0.019461989402770996,-2.462214469909668,-9.399007797241211,-1.3710873126983643,0.49000000953674316,0.07000000029802322,0.21000000834465027,103
16:13:45:589,-0.03796792030334473,-0.009798049926757812,0.016972661018371582,-2.476571559906006,-9.355937004089355,-1.3304094076156616,1.0499999523162842,0.07000000029802322,0.42000001668930054,103
16:13:45:629,-0.0361170768737793,0.0629892349243164,0.01932084560394287,-2.4837498664855957,-9.267402648925781,-1.3232309818267822,0.9100000262260437,-0.14000000059604645,0.6299999952316284,103
16:13:45:669,-0.021236658096313477,0.031249046325683594,0.028856515884399414,-2.4741785526275635,-9.291330337524414,-1.306481122970581,0.2800000011920929,-0.6299999952316284,0.42000001668930054,103
16:13:45:711,-0.018903732299804688,0.04797077178955078,-0.01328575611114502,-2.476571559906006,-9.262616157531738,-1.3519448041915894,-0.3499999940395355,-1.3300000429153442,0.3499999940395355,103
16:13:45:749,-0.04383683204650879,0.024976730346679688,0.03531372547149658,-2.5124638080596924,-9.279366493225098,-1.294516921043396,-1.1200000047683716,-1.8200000524520874,0.49000000953674316,103
16:13:45:789,0.028100967407226562,0.012324333190917969,-0.0138627290725708,-2.4335007667541504,-9.28893756866455,-1.3471590280532837,-1.2599999904632568,-2.1700000762939453,0.5600000023841858,103
16:13:45:830,-0.01771855354309082,0.0022029876708984375,-0.05894672870635986,-2.4837498664855957,-9.298508644104004,-1.4069796800613403,-1.6100000143051147,-2.450000047683716,0.699999988079071,103
16:13:45:868,-0.04480290412902832,-0.017380714416503906,-0.045243024826049805,-2.5220348834991455,-9.322437286376953,-1.4045867919921875,-1.9600000381469727,-2.870000123977661,0.9800000190734863,103
16:13:45:910,-0.03967094421386719,-0.1306743621826172,-0.001737833023071289,-2.526820659637451,-9.468399047851562,-1.361515998840332,-1.2599999904632568,-3.1500000953674316,1.75,103
16:13:45:950,-0.04322242736816406,-0.04711151123046875,-0.010961651802062988,-2.541177749633789,-9.396614074707031,-1.373480200767517,0.7699999809265137,-3.3600001335144043,2.380000114440918,103
16:13:45:989,-0.025006532669067383,-0.06831836700439453,-0.01642632484436035,-2.5292134284973145,-9.434900283813477,-1.3830513954162598,3.009999990463257,-4.199999809265137,2.799999952316284,103
16:13:46:30,-0.12337517738342285,0.11571407318115234,0.10362863540649414,-2.65842604637146,-9.221939086914062,-1.2370892763137817,3.640000104904175,-5.949999809265137,1.75,105
16:13:46:69,-0.18101286888122559,0.17105674743652344,0.14033055305480957,-2.761317014694214,-9.123832702636719,-1.1653046607971191,-0.21000000834465027,-9.730000495910645,-0.14000000059604645,105
16:13:46:109,-0.11226797103881836,0.05261802673339844,0.05675101280212402,-2.720639228820801,-9.229117393493652,-1.234696388244629,-2.799999952316284,-13.15999984741211,-1.399999976158142,105
16:13:46:151,0.030783891677856445,0.07463645935058594,0.03582942485809326,-2.5698914527893066,-9.18843936920166,-1.246660590171814,-3.2200000286102295,-14.699999809265137,-2.240000009536743,105
16:13:46:189,0.015055656433105469,0.05779457092285156,0.019092321395874023,-2.5818557739257812,-9.190832138061523,-1.2586246728897095,-4.130000114440918,-14.770000457763672,-2.309999942779541,105
16:13:46:229,0.03118729591369629,-0.0054492950439453125,0.04207348823547363,-2.557927370071411,-9.255437850952148,-1.2251251935958862,-4.829999923706055,-15.190000534057617,-2.0999999046325684,105
16:13:46:271,0.10534882545471191,-0.03881645202636719,-0.018026232719421387,-2.4574286937713623,-9.298508644104004,-1.289731502532959,-5.110000133514404,-15.399999618530273,-2.309999942779541,105
16:13:46:309,0.0574793815612793,-0.09996604919433594,-0.0029352903366088867,-2.4909284114837646,-9.384650230407715,-1.275374412536621,-4.130000114440918,-14.84000015258789,-2.0999999046325684,105
16:13:46:350,0.1110682487487793,0.0004253387451171875,-0.02340519428253174,-2.4095723628997803,-9.284152030944824,-1.3016955852508545,-3.569999933242798,-14.210000038146973,-1.8200000524520874,105
16:13:46:391,0.10799717903137207,-0.05708789825439453,0.02530384063720703,-2.3856441974639893,-9.355937004089355,-1.246660590171814,-3.5,-13.789999961853027,-1.8200000524520874,105
16:13:46:429,0.09596896171569824,0.0021867752075195312,-0.01804196834564209,-2.3736801147460938,-9.29611587524414,-1.294516921043396,-3.990000009536743,-12.739999771118164,-1.75,105
16:13:46:470,0.13611721992492676,-0.04036426544189453,-0.04697620868682861,-2.2995026111602783,-9.34875774383545,-1.3351951837539673,-3.9200000762939453,-11.199999809265137,-1.8899999856948853,105
16:13:46:526,0.09740829467773438,-0.1586322784423828,-0.014609694480895996,-2.313859462738037,-9.506684303283691,-1.306481122970581,-3.569999933242798,-9.449999809265137,-1.75,105
16:13:46:550,0.039641380310058594,-0.027364730834960938,-0.06911563873291016,-2.3617160320281982,-9.382257461547852,-1.3782659769058228,-0.42000001668930054,-7.349999904632568,-1.1200000047683716,105
16:13:46:593,0.0029993057250976562,-0.02189159393310547,0.005963802337646484,-2.3976082801818848,-9.382257461547852,-1.3016955852508545,-0.21000000834465027,-5.740000247955322,-0.699999988079071,105
16:13:46:629,0.07705545425415039,-0.04239845275878906,-0.02394270896911621,-2.304288148880005,-9.413363456726074,-1.3375877141952515,0.49000000953674316,-4.690000057220459,-0.5600000023841858,105
16:13:46:671,0.044415950775146484,0.012022018432617188,-0.000011801719665527344,-2.3258235454559326,-9.355937004089355,-1.3136597871780396,0.5600000023841858,-3.2899999618530273,-0.6299999952316284,105
16:13:46:709,0.024047136306762695,-0.0037813186645507812,0.00764775276184082,-2.3401806354522705,-9.372685432434082,-1.3040882349014282,0.7699999809265137,-1.9600000381469727,-0.14000000059604645,105
16:13:46:752,0.011580705642700195,-0.06236839294433594,0.021432161331176758,-2.3497519493103027,-9.446864128112793,-1.2849457263946533,1.9600000381469727,-0.14000000059604645,0.49000000953674316,105
16:13:46:790,-0.05581998825073242,0.059218406677246094,0.038202524185180664,-2.431107759475708,-9.31047248840332,-1.2586246728897095,2.1700000762939453,1.1200000047683716,0.6299999952316284,105
16:13:46:830,0.007029056549072266,0.0033464431762695312,-0.007723093032836914,-2.366501569747925,-9.365508079528809,-1.306481122970581,2.799999952316284,2.380000114440918,0.9800000190734863,105
16:13:46:869,-0.01734781265258789,0.10987567901611328,0.05124926567077637,-2.3952155113220215,-9.231510162353516,-1.234696388244629,2.5899999141693115,3.430000066757202,0.9100000262260437,105
16:13:46:911,-0.02727794647216797,0.032387733459472656,-0.01068568229675293,-2.4119651317596436,-9.300901412963867,-1.2993026971817017,2.7300000190734863,4.269999980926514,0.9800000190734863,105
16:13:46:950,-0.054364919662475586,0.048880577087402344,0.045050740242004395,-2.452643394470215,-9.272188186645508,-1.2323036193847656,2.1700000762939453,4.340000152587891,0.9800000190734863,105
16:13:46:992,-0.03774881362915039,0.023790359497070312,0.05135464668273926,-2.445464611053467,-9.291330337524414,-1.2131611108779907,1.1200000047683716,4.340000152587891,0.9100000262260437,105
16:13:47:29,-0.053170204162597656,-0.032652854919433594,0.02002692222595215,-2.4741785526275635,-9.355937004089355,-1.239482045173645,0.9100000262260437,4.619999885559082,1.0499999523162842,106
16:13:47:71,-0.046364545822143555,0.014078140258789062,0.033249855041503906,-2.47896409034729,-9.305686950683594,-1.2179466485977173,0.42000001668930054,4.619999885559082,1.1200000047683716,106
16:13:47:110,-0.019863367080688477,0.07634735107421875,0.0036287307739257812,-2.4574286937713623,-9.22433090209961,-1.246660590171814,0.42000001668930054,4.619999885559082,0.9100000262260437,106
16:13:47:152,-0.03694772720336914,0.19507503509521484,0.00481724739074707,-2.4837498664855957,-9.05683422088623,-1.2442678213119507,-1.75,4.199999809265137,0.21000000834465027,106
16:13:47:190,-0.06975769996643066,0.08140373229980469,-0.015288829803466797,-2.53399920463562,-9.150154113769531,-1.2681961059570312,-4.480000019073486,4.059999942779541,-1.9600000381469727,106
16:13:47:231,-0.009864091873168945,0.05363750457763672,-0.05243039131164551,-2.476571559906006,-9.164510726928711,-1.3184452056884766,-7.840000152587891,3.7799999713897705,-3.009999990463257,106
16:13:47:270,0.05910778045654297,-0.3265419006347656,-0.10894334316253662,-2.392822742462158,-9.626325607299805,-1.4021940231323242,-7.210000038146973,3.430000066757202,-2.0999999046325684,106
16:13:47:311,0.15065622329711914,-0.23251914978027344,-0.15606796741485596,-2.263610363006592,-9.590433120727539,-1.4883356094360352,-2.450000047683716,4.829999923706055,-0.14000000059604645,106
16:13:47:351,0.11095380783081055,-0.07690238952636719,-0.11911165714263916,-2.2755744457244873,-9.454042434692383,-1.4811571836471558,-0.07000000029802322,6.300000190734863,0.49000000953674316,106
16:13:47:392,0.04664945602416992,-0.08257865905761719,-0.12208890914916992,-2.328216552734375,-9.480363845825195,-1.514656662940979,0.5600000023841858,6.510000228881836,0.5600000023841858,106
16:13:47:430,0.004777431488037109,-0.04883384704589844,-0.024929285049438477,-2.368894338607788,-9.458827018737793,-1.423729419708252,1.8899999856948853,6.300000190734863,0.5600000023841858,106
16:13:47:471,0.02679300308227539,-0.008440017700195312,-0.05631422996520996,-2.3401806354522705,-9.42054271697998,-1.4691929817199707,3.7799999713897705,6.159999847412109,0.42000001668930054,106
16:13:47:510,-0.08959245681762695,0.11575984954833984,0.008547782897949219,-2.47896409034729,-9.267402648925781,-1.4021940231323242,4.199999809265137,6.090000152587891,0.21000000834465027,106
16:13:47:574,-0.058274269104003906,0.061980247497558594,-0.050589561462402344,-2.462214469909668,-9.305686950683594,-1.4739787578582764,3.2200000286102295,5.320000171661377,0.5600000023841858,106
16:13:47:590,-0.0370481014251709,0.0093841552734375,-0.011757731437683105,-2.4502503871917725,-9.355937004089355,-1.4380863904953003,3.1500000953674316,5.039999961853027,0.6299999952316284,106
16:13:47:631,-0.043038129806518555,0.0706777572631836,-0.0036634206771850586,-2.4670000076293945,-9.276973724365234,-1.430907964706421,2.7300000190734863,4.760000228881836,0.49000000953674316,106
16:13:47:672,-0.0535731315612793,0.03931427001953125,-0.01824474334716797,-2.4909284114837646,-9.298508644104004,-1.4500504732131958,3.009999990463257,4.340000152587891,0.7699999809265137,106
16:13:47:712,-0.004573345184326172,0.15970706939697266,0.0045468807220458984,-2.4430718421936035,-9.138189315795898,-1.4261221885681152,2.309999942779541,3.2899999618530273,0.9100000262260437,106
16:13:47:751,-0.013230085372924805,0.053109169006347656,0.017037153244018555,-2.455036163330078,-9.231510162353516,-1.4093725681304932,0.49000000953674316,2.380000114440918,1.1200000047683716,106
16:13:47:793,0.016215801239013672,-0.009197235107421875,0.01937258243560791,-2.421536445617676,-9.29611587524414,-1.4021940231323242,0.7699999809265137,2.380000114440918,1.0499999523162842,106
16:13:47:830,0.0416865348815918,-0.06287193298339844,-0.032358407974243164,-2.3856441974639893,-9.365508079528809,-1.4620146751403809,-0.2800000011920929,1.399999976158142,1.1200000047683716,106
16:13:47:872,-0.025992631912231445,0.022443771362304688,-0.004829883575439453,-2.4598214626312256,-9.274580955505371,-1.435693621635437,-0.49000000953674316,1.0499999523162842,1.3300000429153442,106
16:13:47:910,0.017490863800048828,-0.07010078430175781,-0.0019496679306030273,-2.4119651317596436,-9.384650230407715,-1.4333008527755737,-0.9800000190734863,1.1200000047683716,1.4700000286102295,106
16:13:47:953,0.0733346939086914,-0.03502464294433594,0.023325681686401367,-2.337787628173828,-9.358329772949219,-1.4021940231323242,-0.42000001668930054,1.399999976158142,1.6100000143051147,106
16:13:47:991,0.02803945541381836,-0.0777902603149414,0.06077420711517334,-2.376072883605957,-9.42054271697998,-1.3495519161224365,0.2800000011920929,2.380000114440918,1.5399999618530273,106
16:13:48:32,0.06263113021850586,-0.0392608642578125,-0.008808493614196777,-2.3258235454559326,-9.391828536987305,-1.4213367700576782,0.7699999809265137,2.799999952316284,1.8200000524520874,108
16:13:48:71,0.07307577133178711,0.008790969848632812,-0.026189208030700684,-2.297109842300415,-9.34157943725586,-1.4452648162841797,0.8400000333786011,3.2200000286102295,1.6100000143051147,108
16:13:48:112,0.06037497520446777,0.060631752014160156,0.00010538101196289062,-2.2947168350219727,-9.274580955505371,-1.4189438819885254,-0.7699999809265137,3.640000104904175,1.8200000524520874,108
16:13:48:152,0.08275651931762695,-0.03189277648925781,-0.01905834674835205,-2.251646041870117,-9.375079154968262,-1.442872166633606,-0.7699999809265137,4.96999979019165,2.0999999046325684,108
16:13:48:193,0.08534765243530273,-0.038913726806640625,-0.11095952987670898,-2.227717876434326,-9.391828536987305,-1.5625132322311401,0.7699999809265137,6.440000057220459,2.450000047683716,108
16:13:48:231,0.15250539779663086,-0.05410194396972656,-0.11556708812713623,-2.122433662414551,-9.42054271697998,-1.5960125923156738,0.699999988079071,8.539999961853027,2.799999952316284,108
16:13:48:273,0.21388864517211914,0.05051708221435547,-0.0962822437286377,-2.007578134536743,-9.30329418182373,-1.6007983684539795,1.6100000143051147,11.40999984741211,3.569999933242798,108
16:13:48:311,0.24193835258483887,0.06147003173828125,-0.13445353507995605,-1.919043779373169,-9.276973724365234,-1.672582983970642,0.2800000011920929,15.329999923706055,4.619999885559082,108
16:13:48:353,0.2873494625091553,0.11617469787597656,-0.32004547119140625,-1.801795244216919,-9.193224906921387,-1.9381862878799438,-1.5399999618530273,19.25,5.880000114440918,108
16:13:48:392,0.4749044179916382,0.1905670166015625,-0.4187483787536621,-1.495514154434204,-9.07119083404541,-2.1415762901306152,-1.5399999618530273,25.40999984741211,8.539999961853027,108
16:13:48:432,0.3301527500152588,0.09885501861572266,-0.5206817388534546,-1.557727575302124,-9.138189315795898,-2.3736801147460938,-0.6299999952316284,35.13999938964844,13.300000190734863,108
16:13:48:473,0.2794363498687744,-0.1735982894897461,-0.3954885005950928,-1.5385849475860596,-9.454042434692383,-2.3473589420318604,2.870000123977661,40.599998474121094,15.819999694824219,108
16:13:48:512,0.11443638801574707,-0.41835975646972656,0.08560335636138916,-1.674975872039795,-9.803394317626953,-1.8448662757873535,7.769999980926514,42.209999084472656,11.6899995803833,108
16:13:48:552,-0.3544731140136719,-0.4706001281738281,0.3939065933227539,-2.232503652572632,-9.973284721374512,-1.4380863904953003,10.850000381469727,31.850000381469727,8.75,108
16:13:48:593,-0.4099193811416626,-0.9545860290527344,-0.37209343910217285,-2.390429735183716,-10.695917129516602,-2.297109842300415,13.020000457763672,19.950000762939453,4.690000057220459,108
16:13:48:632,-0.09248161315917969,0.5801401138305664,-0.03542125225067139,-2.0961124897003174,-9.016156196594238,-1.9692929983139038,26.31999969482422,19.389999389648438,3.7100000381469727,108
16:13:48:672,-0.21755480766296387,0.8699359893798828,0.30665814876556396,-2.2755744457244873,-8.50887680053711,-1.550549030303955,17.71000099182129,21.90999984741211,3.990000009536743,108
16:13:48:712,-0.5128674507141113,-0.025727272033691406,0.16301333904266357,-2.699103832244873,-9.410971641540527,-1.6534404754638672,10.710000038146973,19.670000076293945,3.9200000762939453,108
16:13:48:754,-0.8448305130004883,0.1938152313232422,0.4194636344909668,-3.242274522781372,-9.142975807189941,-1.2921242713928223,16.520000457763672,12.949999809265137,2.380000114440918,108
16:13:48:792,-1.0912585258483887,0.7867574691772461,0.29537153244018555,-3.76151704788208,-8.353343963623047,-1.3423734903335571,15.119999885559082,6.650000095367432,2.380000114440918,108
16:13:48:833,-0.9534058570861816,1.014172077178955,0.5349214673042297,-3.862015962600708,-7.872386455535889,-0.9690931439399719,5.389999866485596,-0.9800000190734863,2.1700000762939453,108
16:13:48:872,-0.7569818496704102,0.27343082427978516,0.42410868406295776,-3.854837417602539,-8.544770240783691,-0.973878800868988,-7.980000019073486,-10.710000038146973,0.2800000011920929,108
16:13:48:913,-0.8199820518493652,-0.3708467483520508,0.5173129439353943,-4.122833251953125,-9.281759262084961,-0.7513462901115417,-13.510000228881836,-19.530000686645508,-0.42000001668930054,108
16:13:48:953,-0.7306418418884277,-0.7388706207275391,0.771816611289978,-4.216153621673584,-9.834501266479492,-0.3038884699344635,-13.930000305175781,-35.70000076293945,-3.3600001335144043,108
16:13:48:994,-0.8735661506652832,-0.5662107467651367,1.0309330224990845,-4.577469348907471,-9.803394317626953,0.21296121180057526,-0.14000000059604645,-57.81999969482422,-1.6800000667572021,108
16:13:49:32,-2.5480265617370605,1.4555463790893555,2.107299327850342,-6.888936519622803,-7.417750358581543,1.8161523342132568,-5.53000020980835,-89.31999969482422,1.3300000429153442,109
16:13:49:95,-1.7187399864196777,1.6257734298706055,0.6904252767562866,-6.489335060119629,-6.8410797119140625,0.5718846321105957,-42,-134.39999389648438,-0.699999988079071,109
16:13:49:112,-0.37766361236572266,2.173520088195801,0.22883057594299316,-5.242674350738525,-5.749952793121338,0.16749757528305054,-45.220001220703125,-158.27000427246094,29.190000534057617,109
16:13:49:154,0.11134862899780273,0.936741828918457,-0.7396079301834106,-4.72582483291626,-6.752545356750488,-0.9858429431915283,-44.79999923706055,-158.97000122070312,55.29999923706055,109
16:13:49:194,-0.43734216690063477,-0.3130202293395996,-0.8769108057022095,-5.383851051330566,-8.080562591552734,-1.3423734903335571,-24.5,-144.5500030517578,72.16999816894531,109
16:13:49:232,-0.7729244232177734,1.2656769752502441,0.7705358266830444,-5.912664413452148,-6.185446262359619,0.4977070987224579,-29.68000030517578,-160.3699951171875,96.73999786376953,109
16:13:49:282,-2.216744899749756,-0.44420909881591797,-0.4115279018878937,-7.910671234130859,-8.00638484954834,-0.787238597869873,-91.9800033569336,-166.8800048828125,95.62000274658203,109
16:13:49:331,-2.152419090270996,-0.408966064453125,-0.02294105291366577,-8.38444995880127,-8.073383331298828,-0.4043869972229004,-99.26000213623047,-188.02000427246094,84.48999786376953,109
16:13:49:348,-1.77362060546875,-0.15297508239746094,-0.5734876990318298,-8.449056625366211,-7.855636119842529,-1.098305583000183,-132.72000122070312,-195.3000030517578,70.55999755859375,109
16:13:49:387,-1.6849784851074219,-0.9091405868530273,-1.0885810852050781,-8.781659126281738,-8.839086532592773,-1.8855443000793457,-112.91000366210938,-190.47000122070312,61.18000030517578,109
16:13:49:425,-1.045529842376709,-0.13389301300048828,-0.8708648681640625,-8.403593063354492,-8.097311973571777,-1.8855443000793457,-58.72999954223633,-171.4300079345703,62.720001220703125,109
16:13:49:464,-0.5760846138000488,0.09388256072998047,0.1742956042289734,-8.078168869018555,-7.846065521240234,-0.7968099117279053,-22.68000030517578,-156.02999877929688,56.70000076293945,109
16:13:49:504,-0.25795650482177734,0.11339139938354492,1.699556827545166,-7.824529647827148,-7.798208713531494,1.1533405780792236,12.039999961853027,-128.30999755859375,41.369998931884766,109
16:13:49:556,0.040574073791503906,0.988499641418457,0.9021376967430115,-7.515855312347412,-6.675975322723389,0.5814558863639832,-66.43000030517578,-118.2300033569336,11.619999885559082,109
16:13:49:596,0.7388200759887695,-0.20844268798828125,2.1018903255462646,-6.632904052734375,-7.925028324127197,2.3066811561584473,-87.22000122070312,-126.69999694824219,-2.0999999046325684,109
16:13:49:638,0.44748592376708984,-0.4998350143432617,1.0230073928833008,-6.812366485595703,-8.341379165649414,1.4835500717163086,-49.630001068115234,-100.16999816894531,-13.230000495910645,109
16:13:49:679,0.7867827415466309,-0.5300378799438477,0.7169502973556519,-6.276373863220215,-8.504091262817383,1.356730580329895,-47.7400016784668,-91.9800033569336,-39.130001068115234,109
16:13:49:717,0.7997951507568359,0.24787425994873047,0.47593289613723755,-6.063412666320801,-7.664210796356201,1.234696388244629,-11.130000114440918,-71.75,-39.7599983215332,109
16:13:49:754,1.2083711624145508,-0.44106292724609375,-0.45004165172576904,-5.352744102478027,-8.46341323852539,0.19621144235134125,52.5,-61.38999938964844,-37.59000015258789,109
16:13:49:795,1.2825498580932617,1.6418061256408691,1.2900571823120117,-4.95792818069458,-5.9700927734375,2.258824586868286,140.13999938964844,-30.8700008392334,-24.56999969482422,109
16:13:49:834,1.0911245346069336,0.7334246635437012,1.3115272521972656,-4.876572608947754,-6.695117950439453,2.6081764698028564,104.93000030517578,-26.600000381469727,-25.34000015258789,109
16:13:49:875,1.4012346267700195,1.6338386535644531,1.4397304058074951,-4.216153621673584,-5.386244297027588,3.0963122844696045,134.0500030517578,-9.65999984741211,-17.079999923706055,109
16:13:49:915,0.9984750747680664,1.9253764152526855,2.0189433097839355,-4.369294166564941,-4.6133623123168945,4.180261135101318,77.06999969482422,-3.640000104904175,-12.949999809265137,109
16:13:49:958,1.0150909423828125,1.109593391418457,1.9233500957489014,-4.098905563354492,-5.151747226715088,4.565505504608154,21.280000686645508,5.809999942779541,-11.0600004196167,109
16:13:49:994,0.5057916641235352,0.4971656799316406,1.7377629280090332,-4.481756687164307,-5.639883518218994,4.814359188079834,-18.690000534057617,14.069999694824219,-7.980000019073486,109
16:13:50:37,1.0573949813842773,1.3280625343322754,0.974816083908081,-3.665804386138916,-4.47697114944458,4.295116424560547,-7.980000019073486,40.31999969482422,3.569999933242798,109
16:13:50:74,0.17209720611572266,0.30057525634765625,0.016064167022705078,-4.508078098297119,-5.429314613342285,3.3403804302215576,14.84000015258789,63.13999938964844,25.899999618530273,109
16:13:50:116,-0.7352242469787598,1.331587791442871,0.3038184642791748,-5.599205493927002,-4.065405368804932,3.704089403152466,7.840000152587891,66.98999786376953,51.79999923706055,109
16:13:50:155,-1.6371922492980957,-0.799217700958252,0.33876776695251465,-6.910471439361572,-6.396015167236328,3.823730707168579,26.31999969482422,62.29999923706055,46.83000183105469,109
16:13:50:198,-1.0896143913269043,0.1473860740661621,1.7545642852783203,-6.6352972984313965,-5.412564754486084,5.678168296813965,74.4800033569336,53.83000183105469,46.54999923706055,109
16:13:50:234,-0.8640341758728027,0.6500725746154785,1.998985767364502,-6.625725746154785,-4.7473602294921875,6.422336101531982,44.099998474121094,55.86000061035156,28.21000099182129,109
16:13:50:276,-1.127678394317627,-0.027419090270996094,1.082338809967041,-7.171289443969727,-5.43170690536499,5.776273727416992,7.139999866485596,55.51000213623047,14.770000457763672,109
16:13:50:314,-1.0189127922058105,0.07952022552490234,0.9673271179199219,-7.317252159118652,-5.304887294769287,5.9030938148498535,36.119998931884766,51.029998779296875,5.389999866485596,109
16:13:50:356,-0.8534150123596191,0.9384317398071289,0.9691157341003418,-7.365108013153076,-4.211367607116699,6.147161483764648,39.54999923706055,41.650001525878906,-2.870000123977661,109
16:13:50:394,-0.7956733703613281,0.5574049949645996,0.5723810195922852,-7.506284713745117,-4.453042984008789,5.893522262573242,15.680000305175781,33.18000030517578,-9.239999771118164,109
16:13:50:435,-0.47382640838623047,0.8268616199493408,0.011882781982421875,-7.302894115447998,-3.9768712520599365,5.335994720458984,9.800000190734863,28.350000381469727,-6.090000152587891,109
16:13:50:474,-0.4709463119506836,0.6940319538116455,-0.4001455307006836,-7.417750358581543,-3.9361932277679443,4.823930263519287,8.75,26.46000099182129,-1.0499999523162842,109
16:13:50:514,-0.5471258163452148,0.5303401947021484,-0.5268564224243164,-7.630711555480957,-3.9672999382019043,4.565505504608154,4.130000114440918,28.559999465942383,-0.49000000953674316,109
16:13:50:556,-0.742067813873291,0.037592411041259766,-1.0283048152923584,-8.011170387268066,-4.450649738311768,3.806980848312378,4.199999809265137,33.459999084472656,-0.2800000011920929,109
16:13:50:595,-0.825279712677002,-0.0005545616149902344,-0.9566419124603271,-8.300702095031738,-4.488935470581055,3.6394832134246826,10.430000305175781,37.380001068115234,0.14000000059604645,109
16:13:50:635,-0.4764547348022461,-0.11721324920654297,-0.9950249195098877,-8.070990562438965,-4.634897232055664,3.352344274520874,8.539999961853027,39.20000076293945,-2.799999952316284,109
16:13:50:675,-0.2509942054748535,-0.22202587127685547,-0.9817028045654297,-7.908278465270996,-4.7952165603637695,3.1202406883239746,8.609999656677246,42.4900016784668,-8.539999961853027,109
16:13:50:715,-0.06679773330688477,-0.5183587074279785,-0.994016170501709,-7.740781307220459,-5.221138954162598,2.8594231605529785,23.940000534057617,47.31999969482422,-21.489999771118164,109
16:13:50:755,-0.13000869750976562,-0.21943283081054688,-1.1857216358184814,-7.836494445800781,-4.977071285247803,2.3712873458862305,48.369998931884766,57.959999084472656,-32.689998626708984,109
16:13:50:796,-0.7318830490112305,-0.4148283004760742,-1.2586872577667236,-8.621339797973633,-5.276174068450928,1.9836499691009521,62.369998931884766,66.8499984741211,-46.27000045776367,109
16:13:50:844,-1.2229547500610352,-0.707056999206543,-1.0662916898727417,-9.418149948120117,-5.745166778564453,1.9094725847244263,91.69999694824219,70.84000396728516,-63.84000015258789,109
16:13:50:923,-0.9764499664306641,-0.20385122299194336,-1.038716435432434,-9.415757179260254,-5.292923927307129,1.6773687601089478,85.88999938964844,82.25,-85.88999938964844,109
16:13:50:932,-1.5526056289672852,-0.9976973533630371,-0.4653499126434326,-10.380064964294434,-6.3361945152282715,2.1343977451324463,69.58000183105469,71.95999908447266,-108.91999816894531,109
16:13:50:948,-0.46106624603271484,-0.909184455871582,0.2555966377258301,-9.403792381286621,-6.474977493286133,2.919243574142456,57.61000061035156,47.11000061035156,-122.77999877929688,109
16:13:50:988,0.49256324768066406,-0.8383750915527344,-0.5956826210021973,-8.327022552490234,-6.613761901855469,1.919043779373169,-0.699999988079071,28.979999542236328,-134.3300018310547,109
16:13:51:27,1.3818073272705078,-1.4325742721557617,-0.33106255531311035,-7.0923261642456055,-7.566104888916016,2.100898265838623,-35.560001373291016,24.010000228881836,-137.1300048828125,110
16:13:51:68,1.917090892791748,-1.1977448463439941,-0.4792468547821045,-6.077769756317139,-7.630711555480957,1.832902193069458,-47.880001068115234,46.130001068115234,-140.07000732421875,110
16:13:51:114,1.7212700843811035,-1.6071290969848633,-1.0399879217147827,-5.843273162841797,-8.441878318786621,1.0121639966964722,-85.88999938964844,51.029998779296875,-141.5399932861328,110
16:13:51:160,2.307345390319824,-1.2244467735290527,-1.1019008159637451,-4.680361270904541,-8.365307807922363,0.6747759580612183,-80.77999877929688,56.06999969482422,-138.25,110
16:13:51:200,2.571380138397217,-0.16982603073120117,-1.5783106088638306,-3.7734813690185547,-7.353143692016602,-0.19621144235134125,-88.05999755859375,54.25,-121.52000427246094,110
16:13:51:239,1.9671339988708496,-1.1255321502685547,-1.687613844871521,-3.88594388961792,-8.590232849121094,-0.7274181246757507,-53.619998931884766,42.13999938964844,-94.63999938964844,110
16:13:51:347,2.159470319747925,-0.6400871276855469,-1.3271199464797974,-3.153740167617798,-8.264809608459473,-0.6987042427062988,9.100000381469727,29.260000228881836,-68.94999694824219,110
16:13:51:363,2.1008565425872803,-0.6518106460571289,-1.1038095951080322,-2.6871397495269775,-8.439485549926758,-0.7513462901115417,43.04999923706055,14.5600004196167,-36.68000030517578,110
16:13:51:367,1.8931679725646973,-0.5980186462402344,-0.7988203763961792,-2.421536445617676,-8.535198211669922,-0.6460621356964111,79.02999877929688,-2.380000114440918,-3.2200000286102295,110
16:13:51:394,2.000755786895752,-1.406829833984375,0.19747449457645416,-1.813759446144104,-9.695716857910156,0.39960137009620667,71.47000122070312,-7.070000171661377,-14.350000381469727,110
16:13:51:428,2.098311424255371,-1.332204818725586,0.42023301124572754,-1.191625714302063,-9.954142570495605,0.7274181246757507,90.09000396728516,7.139999866485596,-23.309999465942383,110
16:13:51:467,1.7284198999404907,0.17084693908691406,0.8453789949417114,-1.129412293434143,-8.408378601074219,1.3639088869094849,94.5,17.850000381469727,-23.100000381469727,110
16:13:51:509,1.2621376514434814,0.6707558631896973,1.6296038627624512,-1.2801601886749268,-7.740781307220459,2.555534601211548,74.9000015258789,14,-20.299999237060547,110
16:13:51:555,0.770427942276001,-0.9852304458618164,1.3821675777435303,-1.5792629718780518,-9.643074989318848,2.6536402702331543,32.7599983215332,0.7699999809265137,-18.059999465942383,110
16:13:51:600,0.3674887418746948,-0.47616004943847656,1.0597918033599854,-1.8903299570083618,-9.253045082092285,2.596212387084961,50.540000915527344,-0.9100000262260437,-12.8100004196167,110
16:13:51:642,-0.3281428813934326,0.2048349380493164,1.479538917541504,-2.667997360229492,-8.520841598510742,3.3858442306518555,45.709999084472656,-4.829999923706055,-7.980000019073486,110
16:13:51:680,-0.18785810470581055,0.8376860618591309,2.163731336593628,-2.5746772289276123,-7.678568363189697,4.610969543457031,16.729999542236328,-23.729999542236328,0.2800000011920929,110
16:13:51:715,0.33593523502349854,0.49978017807006836,1.843925952911377,-1.9669002294540405,-7.891529560089111,4.752145767211914,-3.640000104904175,-33.38999938964844,14.84000015258789,110
16:13:51:757,0.7453985214233398,-0.3735361099243164,0.6673235893249512,-1.3710873126983643,-8.858229637145996,3.7423744201660156,2.0299999713897705,-35.630001068115234,13.369999885559082,110
16:13:51:797,0.8987715244293213,-0.019346237182617188,0.24289178848266602,-0.9930213689804077,-8.50887680053711,3.3786656856536865,15.260000228881836,-28.979999542236328,14.699999809265137,110
16:13:51:835,0.7075316905975342,-0.2049884796142578,-0.21533775329589844,-1.007378339767456,-8.745766639709473,2.8666017055511475,9.65999984741211,-18.200000762939453,12.390000343322754,110
16:13:51:877,0.6387671232223511,-0.7382678985595703,-0.03827238082885742,-0.916451096534729,-9.463613510131836,3.0340991020202637,8.819999694824219,-8.960000038146973,10.640000343322754,110
16:13:51:917,0.6545830965042114,0.16551780700683594,0.08232331275939941,-0.7369893789291382,-8.518448829650879,3.1752755641937256,18.059999465942383,-4.760000228881836,7.980000019073486,110
16:13:51:958,0.4222108721733093,-0.1796092987060547,0.7722198963165283,-0.8638089299201965,-8.908478736877441,4.058227062225342,8.119999885559082,-1.8899999856948853,10.220000267028809,110
16:13:51:996,0.32436883449554443,-0.4021129608154297,0.7307171821594238,-0.8805587291717529,-9.231510162353516,4.199403762817383,-6.929999828338623,-9.100000381469727,9.869999885559082,110
16:13:52:37,0.17143923044204712,-0.5380010604858398,0.09069490432739258,-0.9906285405158997,-9.501898765563965,3.5820553302764893,-0.6299999952316284,-7.490000247955322,6.300000190734863,110
16:13:52:75,0.1869220733642578,0.0003070831298828125,0.022785425186157227,-0.9284151792526245,-8.963513374328613,3.5198421478271484,11.970000267028809,-0.14000000059604645,-1.5399999618530273,110
16:13:52:117,0.2911927103996277,0.5362377166748047,-0.060256242752075195,-0.7513462901115417,-8.293522834777832,3.421736478805542,8.470000267028809,5.110000133514404,-1.4700000286102295,110
16:13:52:157,0.06258511543273926,-0.11083126068115234,0.17002010345458984,-0.9643075466156006,-8.968299865722656,3.6945178508758545,3.5,6.650000095367432,4.409999847412109,110
16:13:52:198,-0.13178646564483643,0.08170413970947266,0.469097375869751,-1.191625714302063,-8.755338668823242,4.110869407653809,-2.870000123977661,8.609999656677246,4.96999979019165,110
16:13:52:236,-0.08628654479980469,-0.27154541015625,0.29679346084594727,-1.1676974296569824,-9.176474571228027,4.012763977050781,-7.699999809265137,3.3600001335144043,1.2599999904632568,110
16:13:52:278,0.22768080234527588,-0.09089469909667969,-0.009505033493041992,-0.7968099117279053,-9.018548011779785,3.704089403152466,7.210000038146973,3.9200000762939453,-3.569999933242798,110
16:13:52:316,0.1610877513885498,0.017253875732421875,-0.10714530944824219,-0.8231310248374939,-8.906085968017578,3.579662799835205,8.050000190734863,8.539999961853027,-5.670000076293945,110
16:13:52:359,-0.008956313133239746,-0.15656566619873047,-0.10103082656860352,-0.9954141974449158,-9.119047164916992,3.5605196952819824,6.369999885559082,11.970000267028809,-6.860000133514404,110
16:13:52:397,0.044519901275634766,0.10445880889892578,-0.01956796646118164,-0.9308080077171326,-8.831908226013184,3.6370904445648193,13.789999961853027,13.510000228881836,-3.2200000286102295,110
16:13:52:437,-0.17686676979064941,0.037624359130859375,0.22362780570983887,-1.196411371231079,-8.889336585998535,3.9361932277679443,6.929999828338623,14.350000381469727,-9.869999885559082,110
16:13:52:476,-0.02472364902496338,0.08369922637939453,0.10998892784118652,-1.0504491329193115,-8.82233715057373,3.8500516414642334,7.139999866485596,11.270000457763672,-10.289999961853027,110
16:13:52:517,0.05870562791824341,0.31772804260253906,-0.0919492244720459,-0.9523434042930603,-8.50887680053711,3.6251261234283447,4.269999980926514,11.199999809265137,-8.680000305175781,110
16:13:52:557,-0.0200345516204834,0.02638530731201172,0.14658045768737793,-1.0360921621322632,-8.793622970581055,3.900300979614258,-0.3499999940395355,11.619999885559082,-9.029999732971191,110
16:13:52:598,0.09499931335449219,0.09385013580322266,0.13066411018371582,-0.8973084688186646,-8.702695846557617,3.91705060005188,0.2800000011920929,11.760000228881836,-7.210000038146973,110
16:13:52:636,0.049199819564819336,0.21482086181640625,0.24810075759887695,-0.9308080077171326,-8.528019905090332,4.096512317657471,-1.6100000143051147,11.0600004196167,-6.159999847412109,110
16:13:52:678,0.2537568211555481,-0.503875732421875,0.7172446250915527,-0.662811815738678,-9.372685432434082,4.744967460632324,-4.130000114440918,5.25,-0.9800000190734863,110
16:13:52:716,0.42123085260391235,-0.366729736328125,-0.3029346466064453,-0.3900300860404968,-9.327221870422363,3.649054527282715,8.470000267028809,3.1500000953674316,3.3600001335144043,110
16:13:52:758,0.7696070075035095,-0.38335514068603516,-1.1343920230865479,0.15074782073497772,-9.439685821533203,2.53399920463562,23.65999984741211,20.15999984741211,-8.680000305175781,110
16:13:52:797,0.650142252445221,0.9777836799621582,0.35015368461608887,0.19381862878799438,-7.83410120010376,4.106083393096924,15.960000038146973,38.709999084472656,-11.829999923706055,110
16:13:52:838,-0.06373491883277893,2.041808605194092,-0.1180427074432373,-0.5359922647476196,-6.259624004364014,3.6083762645721436,-35.630001068115234,48.93000030517578,-11.6899995803833,110
16:13:52:876,0.01792532205581665,1.438192367553711,0.20610475540161133,-0.4498506784439087,-6.503692150115967,3.9840497970581055,-119.69999694824219,54.459999084472656,11.619999885559082,110
16:13:52:918,-1.4883524179458618,-0.3023681640625,-1.004728078842163,-2.328216552734375,-8.319844245910645,2.5220348834991455,-242.8300018310547,39.27000045776367,45.56999969482422,110
16:13:53:26,-1.4108216762542725,-2.835714340209961,-3.927851438522339,-2.603391170501709,-11.562118530273438,-1.3830513954162598,-161.77000427246094,17.989999771118164,23.450000762939453,109
16:13:53:39,-1.2683981657028198,-0.37537097930908203,-3.1767377853393555,-2.778067111968994,-9.19561767578125,-1.4261221885681152,-38.36000061035156,25.760000228881836,29.81999969482422,109
16:13:53:44,-0.8634918928146362,0.06341266632080078,-2.2217092514038086,-2.589033842086792,-8.740981101989746,-1.026520848274231,-40.18000030517578,31.56999969482422,26.739999771118164,109
16:13:53:70,-1.3110134601593018,-0.4335765838623047,-1.4213154315948486,-3.3643085956573486,-9.346364974975586,-0.5814558863639832,-57.189998626708984,33.31999969482422,19.31999969482422,109
16:13:53:109,-0.5185613632202148,-1.5624151229858398,-1.562017560005188,-2.7014968395233154,-10.86580753326416,-1.112662434577942,-41.15999984741211,16.940000534057617,9.800000190734863,109
